time_period,time_identifier,geographic_level,country_code,country_name,sex,subject_name,inst_type,provider_name,ukprn,xinstc01,inst_region,current_region,grads_1YAG,unmatched_percent_1YAG,overseas_percent_1YAG,matched_1YAG,activity_not_captured_1YAG,no_sust_dest_1YAG,sust_emp_only_1YAG,sust_emp_with_or_without_fs_1YAG,sust_emp_fs_or_both_1YAG,grads_3YAG,unmatched_percent_3YAG,overseas_percent_3YAG,matched_3YAG,activity_not_captured_3YAG,no_sust_dest_3YAG,sust_emp_only_3YAG,sust_emp_with_or_without_fs_3YAG,sust_emp_fs_or_both_3YAG,grads_5YAG,unmatched_percent_5YAG,overseas_percent_5YAG,matched_5YAG,activity_not_captured_5YAG,no_sust_dest_5YAG,sust_emp_only_5YAG,sust_emp_with_or_without_fs_5YAG,sust_emp_fs_or_both_5YAG,PAYE_earnings_include_1YAG,PAYE_earnings_LQ_1YAG,PAYE_earnings_median_1YAG,PAYE_earnings_UQ_1YAG,PAYE_earnings_include_3YAG,PAYE_earnings_LQ_3YAG,PAYE_earnings_median_3YAG,PAYE_earnings_UQ_3YAG,PAYE_earnings_include_5YAG,PAYE_earnings_LQ_5YAG,PAYE_earnings_median_5YAG,PAYE_earnings_UQ_5YAG,total_earnings_include_1YAG,total_earnings_LQ_1YAG,total_earnings_median_1YAG,total_earnings_UQ_1YAG,total_earnings_include_3YAG,total_earnings_LQ_3YAG,total_earnings_median_3YAG,total_earnings_UQ_3YAG,total_earnings_include_5YAG,total_earnings_LQ_5YAG,total_earnings_median_5YAG,total_earnings_UQ_5YAG,POLAR_num_included_1YAG,POLAR_percent_1YAG,POLAR_num_included_3YAG,POLAR_percent_3YAG,POLAR_num_included_5YAG,POLAR_percent_5YAG,PA_num_included_1YAG,PA_median_1YAG,PA_num_included_3YAG,PA_median_3YAG,PA_num_included_5YAG,PA_median_5YAG,PA_rank_1YAG,PA_rank_3YAG,PA_rank_5YAG,PA_band_1YAG,PA_band_3YAG,PA_band_5YAG,POLAR_include_percent_1YAG,POLAR_include_percent_3YAG,POLAR_include_percent_5YAG,PA_include_percent_1YAG,PA_include_percent_3YAG,PA_include_percent_5YAG
201718,Tax year,National,K03000001,Great Britain,Female,"Agriculture, food and related studies",Further Education College,Askham Bryan College,10000415,England,Yorkshire and the Humber,All,45,0,0,45,4.4,11.1,80,82.2,84.4,45,0,0,45,0,9.3,88.4,90.7,90.7,40,2.7,0,40,13.9,5.6,77.8,80.6,80.6,35,12800,15700,17500,35,14200,17000,21500,30,15700,17000,26600,35,11700,15700,17500,35,14200,17000,21500,30,15600,16800,24200,20,11.8,20,22.2,20,12.5,5,200,10,200,10,220,0.7,0.7,0.5,2,2,2,37.8,41.9,44.4,11.1,18.6,25
201718,Tax year,National,K03000001,Great Britain,Female,"Agriculture, food and related studies",Further Education College,Bishop Burton College,10000721,England,Yorkshire and the Humber,All,70,1.5,0,70,1.5,3,83.3,87.9,95.5,90,2.3,0,90,5.8,4.7,80.2,87.2,89.5,30,0,0,30,3.3,10,83.3,86.7,86.7,50,11300,12800,17500,65,13900,16400,21200,25,16100,19700,25200,55,11300,12800,17200,70,13100,15700,20100,25,15600,19500,24100,45,4.9,65,12.7,15,14.3,25,220,40,200,10,160,0.6,0.7,0.9,2,2,3,62.1,73.3,46.7,34.8,41.9,33.3
201718,Tax year,National,K03000001,Great Britain,Female,"Agriculture, food and related studies",Further Education College,BMC (Brooksby Melton College),10000952,England,East Midlands,All,20,0,0,20,6.2,0,75,81.2,93.8,c,c,c,c,c,c,c,c,c,c,c,c,c,c,c,c,c,c,15,12000,15500,17800,c,c,c,c,c,c,c,c,15,12000,15500,17800,c,c,c,c,c,c,c,c,10,11.1,c,c,c,c,5,193.3333333,c,c,c,c,0.8,c,c,3,c,c,56.2,c,c,18.8,c,c
201718,Tax year,National,K03000001,Great Britain,Female,"Agriculture, food and related studies",Further Education College,Bridgwater and Taunton College,10000878,England,South West,All,c,c,c,c,c,c,c,c,c,15,0,0,15,6.7,13.3,73.3,80,80,c,c,c,c,c,c,c,c,c,c,c,c,c,c,c,c,c,c,c,c,c,c,c,c,c,c,c,c,c,c,c,c,c,c,c,10,12.5,c,c,c,c,5,220,c,c,c,0.5,c,c,2,c,c,53.3,c,c,33.3,c
201718,Tax year,National,K03000001,Great Britain,Female,"Agriculture, food and related studies",Further Education College,Cornwall College,10001696,England,South West,All,c,c,c,c,c,c,c,c,c,c,c,c,c,c,c,c,c,c,c,c,c,c,c,c,c,c,c,c,c,c,c,c,c,c,c,c,c,c,c,c,c,c,c,c,c,c,c,c,c,c,c,c,c,c,c,c,c,c,c,c,c,c,c,c,c,c,c,c,c,c,c,c,c,c,c
201718,Tax year,National,K03000001,Great Britain,Female,"Agriculture, food and related studies",Further Education College,Grimsby Institute of Further and Higher Education,10007938,England,Yorkshire and the Humber,All,c,c,c,c,c,c,c,c,c,c,c,c,c,c,c,c,c,c,c,c,c,c,c,c,c,c,c,c,c,c,c,c,c,c,c,c,c,c,c,c,c,c,c,c,c,c,c,c,c,c,c,c,c,c,c,c,c,c,c,c,c,c,c,c,c,c,c,c,c,c,c,c,c,c,c
201718,Tax year,National,K03000001,Great Britain,Female,"Agriculture, food and related studies",Further Education College,Guildford College of Further and Higher Education,10002815,England,South East,All,c,c,c,c,c,c,c,c,c,c,c,c,c,c,c,c,c,c,c,c,c,c,c,c,c,c,c,c,c,c,c,c,c,c,c,c,c,c,c,c,c,c,c,c,c,c,c,c,c,c,c,c,c,c,c,c,c,c,c,c,c,c,c,c,c,c,c,c,c,c,c,c,c,c,c
201718,Tax year,National,K03000001,Great Britain,Female,"Agriculture, food and related studies",Further Education College,Hadlow College,10002843,England,South East,All,c,c,c,c,c,c,c,c,c,c,c,c,c,c,c,c,c,c,50,0,0,50,2.2,6.5,78.3,91.3,91.3,c,c,c,c,c,c,c,c,35,14200,17900,22600,c,c,c,c,c,c,c,c,35,14200,17500,21500,c,c,c,c,25,20,c,c,c,c,10,220,c,c,0.5,c,c,2,c,c,54.3,c,c,17.4
201718,Tax year,National,K03000001,Great Britain,Female,"Agriculture, food and related studies",Further Education College,Leeds City College,10024962,England,Yorkshire and the Humber,All,c,c,c,c,c,c,c,c,c,15,0,0,15,0,8.3,83.3,91.7,91.7,c,c,c,c,c,c,c,c,c,c,c,c,c,c,c,c,c,c,c,c,c,c,c,c,c,c,c,c,c,c,c,c,c,c,c,5,50,c,c,c,c,5,200,c,c,c,0.7,c,c,2,c,c,16.7,c,c,8.3,c
201718,Tax year,National,K03000001,Great Britain,Female,"Agriculture, food and related studies",Further Education College,Moulton College,10004442,England,East Midlands,All,20,0,0,20,5,10,75,80,85,15,0,0,15,0,0,91.7,100,100,c,c,c,c,c,c,c,c,c,15,15700,19700,20800,15,11300,17900,30700,c,c,c,c,15,14600,19700,20800,15,11300,17900,30700,c,c,c,c,10,10,10,16.7,c,c,10,210,5,90,c,c,0.7,1,c,2,3,c,50,50,c,30,25,c
201718,Tax year,National,K03000001,Great Britain,Female,"Agriculture, food and related studies",Further Education College,Myerscough College,10004478,England,North West,All,c,c,c,c,c,c,c,c,c,c,c,c,c,c,c,c,c,c,c,c,c,c,c,c,c,c,c,c,c,c,c,c,c,c,c,c,c,c,c,c,c,c,c,c,c,c,c,c,c,c,c,c,c,c,c,c,c,c,c,c,c,c,c,c,c,c,c,c,c,c,c,c,c,c,c
201718,Tax year,National,K03000001,Great Britain,Female,"Agriculture, food and related studies",Further Education College,Plumpton College,10005124,England,South East,All,c,c,c,c,c,c,c,c,c,c,c,c,c,c,c,c,c,c,c,c,c,c,c,c,c,c,c,c,c,c,c,c,c,c,c,c,c,c,c,c,c,c,c,c,c,c,c,c,c,c,c,c,c,c,c,c,c,c,c,c,c,c,c,c,c,c,c,c,c,c,c,c,c,c,c
201718,Tax year,National,K03000001,Great Britain,Female,"Agriculture, food and related studies",Further Education College,Reaseheath College,10005404,England,North West,All,20,0,0,20,10.5,0,78.9,78.9,89.5,25,0,0,25,4.8,0,76.2,95.2,95.2,c,c,c,c,c,c,c,c,c,15,15000,16100,19300,15,17500,19700,20400,c,c,c,c,15,14600,16100,19300,20,16500,19500,20200,c,c,c,c,15,14.3,20,18.8,c,c,10,265,15,230,c,c,0.2,0.5,c,1,2,c,73.7,76.2,c,42.1,52.4,c
201718,Tax year,National,K03000001,Great Britain,Female,"Agriculture, food and related studies",Further Education College,South Staffordshire College,10023526,England,West Midlands,All,c,c,c,c,c,c,c,c,c,c,c,c,c,c,c,c,c,c,c,c,c,c,c,c,c,c,c,c,c,c,c,c,c,c,c,c,c,c,c,c,c,c,c,c,c,c,c,c,c,c,c,c,c,c,c,c,c,c,c,c,c,c,c,c,c,c,c,c,c,c,c,c,c,c,c
201718,Tax year,National,K03000001,Great Britain,Female,"Agriculture, food and related studies",Further Education College,Sparsholt College,10006050,England,South East,All,40,0,0,40,0,9.9,57.7,78.9,90.1,65,0,0,65,3.2,6.3,82.5,88.9,90.5,40,0,2.5,40,5.1,5.1,82.1,89.7,89.7,20,11700,14600,17500,50,13900,16400,21500,35,15500,20100,26100,25,11000,14600,17500,50,13200,16100,20800,35,15500,20100,26700,20,28.9,35,27.3,30,14.8,10,225,15,210,10,185,0.5,0.7,0.8,2,2,3,53.5,52.4,69.2,22.5,22.2,25.6
201718,Tax year,National,K03000001,Great Britain,Female,"Agriculture, food and related studies",Further Education College,Warwickshire College,10007859,England,West Midlands,All,30,0,0,30,4.9,0,84.5,88,95.1,30,3.8,0,25,4,4.8,81.6,88.8,91.2,20,5.3,0,20,0,5.6,88.9,94.4,94.4,25,13900,17200,19700,25,16400,18600,21500,15,21500,24800,27700,25,13900,18200,20400,25,16400,18600,21500,20,17700,21900,27700,30,17.1,25,8.5,15,8.3,15,230,20,220,15,240,0.5,0.5,0.3,2,2,2,90.8,94.4,66.7,48.4,71.2,61.1
201718,Tax year,National,K03000001,Great Britain,Female,"Agriculture, food and related studies",Higher Education Institution,Aberystwyth University,10007856,Wales,Wales,All,50,0,0,50,5.8,12.9,55.4,72.7,81.3,55,1.9,1.9,55,5.9,9.8,71.2,84.3,84.3,45,2.3,0,45,9.2,4.6,67.7,79.2,86.2,25,11300,15700,18200,35,16100,18200,21500,30,14200,17900,20800,25,11300,15700,18200,35,14600,18200,21500,30,14200,17500,21700,35,0,45,2.4,40,7.1,NA,NA,NA,NA,NA,NA,NA,NA,NA,NA,NA,NA,71.9,80.4,81.5,0,0,0
201718,Tax year,National,K03000001,Great Britain,Female,"Agriculture, food and related studies",Higher Education Institution,Anglia Ruskin University,10000291,England,East of England,All,25,4.3,0,25,4.5,4.5,63.6,86.4,90.9,30,0,0,30,11.5,7.7,76.9,76.9,80.8,40,1.4,0,40,8.3,16.7,69.4,75,75,15,12400,14200,16400,20,13100,16800,19300,25,17500,20100,23700,15,13500,14600,16800,20,12800,16800,19300,25,17200,20100,23700,20,6.2,25,8.7,25,16,10,240,20,230,20,210,0.4,0.5,0.7,2,2,2,72.7,88.5,69.4,40.9,61.5,44.4
201718,Tax year,National,K03000001,Great Britain,Female,"Agriculture, food and related studies",Higher Education Institution,Bangor University,10007857,Wales,Wales,All,15,0,0,15,0,18.2,27.3,54.5,81.8,15,0,0,15,0,7.7,84.6,92.3,92.3,c,c,c,c,c,c,c,c,c,c,c,c,c,15,13500,19700,21200,c,c,c,c,c,c,c,c,15,13500,19700,21200,c,c,c,c,10,11.1,15,9.1,c,c,NA,NA,NA,NA,c,c,NA,NA,c,NA,NA,c,81.8,84.6,c,0,0,c
201718,Tax year,National,K03000001,Great Britain,Female,"Agriculture, food and related studies",Higher Education Institution,Birkbeck College,10007760,England,London,All,c,c,c,c,c,c,c,c,c,c,c,c,c,c,c,c,c,c,c,c,c,c,c,c,c,c,c,c,c,c,c,c,c,c,c,c,c,c,c,c,c,c,c,c,c,c,c,c,c,c,c,c,c,c,c,c,c,c,c,c,c,c,c,c,c,c,c,c,c,c,c,c,c,c,c
201718,Tax year,National,K03000001,Great Britain,Female,"Agriculture, food and related studies",Higher Education Institution,Bournemouth University,10000824,England,South West,All,c,c,c,c,c,c,c,c,c,c,c,c,c,c,c,c,c,c,20,0,0,20,29.4,11.8,52.9,58.8,58.8,c,c,c,c,c,c,c,c,c,c,c,c,c,c,c,c,c,c,c,c,c,c,c,c,c,c,c,c,5,25,c,c,c,c,5,240,c,c,0.3,c,c,2,c,c,23.5,c,c,5.9
201718,Tax year,National,K03000001,Great Britain,Female,"Agriculture, food and related studies",Higher Education Institution,Canterbury Christ Church University,10001143,England,South East,All,20,0,0,20,0,6.2,75,81.2,93.8,c,c,c,c,c,c,c,c,c,c,c,c,c,c,c,c,c,c,15,15100,16600,18100,c,c,c,c,c,c,c,c,15,15100,16600,18100,c,c,c,c,c,c,c,c,15,21.4,c,c,c,c,10,240,c,c,c,c,0.4,c,c,2,c,c,87.5,c,c,43.8,c,c
201718,Tax year,National,K03000001,Great Britain,Female,"Agriculture, food and related studies",Higher Education Institution,Cardiff Metropolitan University,10007854,Wales,Wales,All,20,0,0,20,5.4,0,78.4,89.2,94.6,15,0,3.3,15,6.9,0,86.2,93.1,93.1,20,0,0,20,10.5,0,89.5,89.5,89.5,15,19400,21400,24100,15,17900,23000,28100,20,16400,21400,25600,15,19400,21400,24100,15,17900,23000,28100,20,16400,21400,25600,20,17.6,10,35,20,6.5,NA,NA,NA,NA,NA,NA,NA,NA,NA,NA,NA,NA,91.9,69,81.6,0,0,0
201718,Tax year,National,K03000001,Great Britain,Female,"Agriculture, food and related studies",Higher Education Institution,Coventry University,10001726,England,West Midlands,All,c,c,c,c,c,c,c,c,c,c,c,c,c,c,c,c,c,c,c,c,c,c,c,c,c,c,c,c,c,c,c,c,c,c,c,c,c,c,c,c,c,c,c,c,c,c,c,c,c,c,c,c,c,c,c,c,c,c,c,c,c,c,c,c,c,c,c,c,c,c,c,c,c,c,c
201718,Tax year,National,K03000001,Great Britain,Female,"Agriculture, food and related studies",Higher Education Institution,Glynd?r University,10007833,Wales,Wales,All,20,0,0,20,0,0,88.2,100,100,15,0,0,15,18.2,27.3,27.3,54.5,54.5,20,5.9,0,20,6.2,0,81.2,93.8,93.8,15,13500,14200,16800,c,c,c,c,c,c,c,c,15,13500,14200,16800,c,c,c,c,c,c,c,c,10,12.5,5,0,5,0,NA,NA,NA,NA,NA,NA,NA,NA,NA,NA,NA,NA,47.1,18.2,18.8,0,0,0
201718,Tax year,National,K03000001,Great Britain,Female,"Agriculture, food and related studies",Higher Education Institution,Harper Adams University,10040812,England,West Midlands,All,195,0,0,195,3.1,7.9,80.1,88,89,170,0.6,0,170,4.7,4.1,80.5,90.5,91.1,c,c,c,c,c,c,c,c,c,150,19000,21500,24800,135,17500,23200,28500,c,c,c,c,155,18600,21200,24800,135,17500,23200,28500,c,c,c,c,180,1.7,155,5.9,c,c,125,260,115,260,c,c,0.2,0.2,c,1,1,c,92.1,90.5,c,63.9,65.7,c
201718,Tax year,National,K03000001,Great Britain,Female,"Agriculture, food and related studies",Higher Education Institution,Harper Adams University College,10002901,England,West Midlands,All,c,c,c,c,c,c,c,c,c,c,c,c,c,c,c,c,c,c,115,2.7,0,110,2.7,4.5,85.5,92.7,92.7,c,c,c,c,c,c,c,c,90,16500,22100,28400,c,c,c,c,c,c,c,c,95,15700,21500,28100,c,c,c,c,80,3.8,c,c,c,c,55,240,c,c,0.3,c,c,2,c,c,71.8,c,c,48.2
201718,Tax year,National,K03000001,Great Britain,Female,"Agriculture, food and related studies",Higher Education Institution,Heriot-Watt University,10007764,Scotland,Scotland,All,c,c,c,c,c,c,c,c,c,c,c,c,c,c,c,c,c,c,c,c,c,c,c,c,c,c,c,c,c,c,c,c,c,c,c,c,c,c,c,c,c,c,c,c,c,c,c,c,c,c,c,c,c,c,c,c,c,c,c,c,c,c,c,c,c,c,c,c,c,c,c,c,c,c,c
201718,Tax year,National,K03000001,Great Britain,Female,"Agriculture, food and related studies",Higher Education Institution,Liverpool John Moores University,10003957,England,North West,All,20,0,0,20,0,11.1,61.1,88.9,88.9,20,0,0,20,0,0,100,100,100,20,5.9,0,20,6.2,0,87.5,93.8,93.8,15,9900,19700,21900,20,16200,24800,27700,15,15300,24500,27400,15,9900,19700,21900,20,16200,24800,27700,15,15300,24500,27400,15,0,15,7.1,10,10,15,240,10,255,10,280,0.4,0.3,0.1,2,2,1,83.3,87.5,62.5,61.1,62.5,43.8
201718,Tax year,National,K03000001,Great Britain,Female,"Agriculture, food and related studies",Higher Education Institution,London Metropolitan University,10004048,England,London,All,c,c,c,c,c,c,c,c,c,c,c,c,c,c,c,c,c,c,c,c,c,c,c,c,c,c,c,c,c,c,c,c,c,c,c,c,c,c,c,c,c,c,c,c,c,c,c,c,c,c,c,c,c,c,c,c,c,c,c,c,c,c,c,c,c,c,c,c,c,c,c,c,c,c,c
201718,Tax year,National,K03000001,Great Britain,Female,"Agriculture, food and related studies",Higher Education Institution,London South Bank University,10004078,England,London,All,c,c,c,c,c,c,c,c,c,20,5.3,0,20,33.3,0,66.7,66.7,66.7,20,0,0,20,6.2,18.8,56.2,68.8,75,c,c,c,c,c,c,c,c,c,c,c,c,c,c,c,c,c,c,c,c,c,c,c,c,c,c,5,0,0,0,c,c,5,250,0,250,c,0.3,0.2,c,2,1,c,16.7,0,c,11.1,0
201718,Tax year,National,K03000001,Great Britain,Female,"Agriculture, food and related studies",Higher Education Institution,Oxford Brookes University,10004930,England,South East,All,45,0,0,45,9.5,9.5,69,78.6,81,30,0,0,30,10.7,10.7,75,78.6,78.6,c,c,c,c,c,c,c,c,c,30,10600,15700,18600,20,17100,19300,23100,c,c,c,c,30,10200,15300,18600,20,17100,19300,23100,c,c,c,c,15,13.3,20,5,c,c,15,260,15,220,c,c,0.2,0.5,c,1,2,c,35.7,71.4,c,28.6,46.4,c
201718,Tax year,National,K03000001,Great Britain,Female,"Agriculture, food and related studies",Higher Education Institution,Royal Agricultural University,10005545,England,South West,All,75,0,0,75,3.7,14.4,66.4,73.7,81.9,75,0,1.1,75,9.3,7.1,65.4,81.5,83.7,65,2.9,1.2,60,9.5,7.4,79.3,83.2,83.2,45,16800,19700,24100,45,17200,20800,28100,45,19300,24100,29600,45,16800,19700,23400,50,17200,20400,27400,50,19100,23700,29600,60,9,65,5.1,50,11.3,50,220,50,240,40,240,0.6,0.3,0.3,2,2,2,84.5,86.1,79.5,65.3,66.5,65.7
201718,Tax year,National,K03000001,Great Britain,Female,"Agriculture, food and related studies",Higher Education Institution,Sheffield Hallam University,10005790,England,Yorkshire and the Humber,All,35,0,0,35,3,4.4,86.7,91.1,92.6,35,0,0,35,5.8,7.2,84.1,87,87,50,2.8,2.1,50,3.7,5.2,85.9,91.1,91.1,30,18200,21500,24100,30,23000,25200,29200,40,22300,29900,34700,30,18200,21500,24100,30,23000,25200,29200,40,22300,29900,34700,35,10.8,35,6.3,45,0,30,240,30,260,45,240,0.4,0.2,0.3,2,1,2,96,91.3,89.6,78.3,78.3,89.6
201718,Tax year,National,K03000001,Great Britain,Female,"Agriculture, food and related studies",Higher Education Institution,SRUC,10005700,Scotland,Scotland,All,15,0,0,15,6.7,6.7,66.7,86.7,86.7,15,0,0,15,21.4,7.1,35.7,71.4,71.4,15,9.1,0,c,c,c,c,c,c,c,c,c,c,c,c,c,c,c,c,c,c,c,c,c,c,c,c,c,c,c,c,c,c,NA,0,NA,0,c,c,NA,NA,NA,NA,c,c,NA,NA,c,NA,NA,c,0,0,c,0,0,c
201718,Tax year,National,K03000001,Great Britain,Female,"Agriculture, food and related studies",Higher Education Institution,Staffordshire University,10006299,England,West Midlands,All,c,c,c,c,c,c,c,c,c,c,c,c,c,c,c,c,c,c,c,c,c,c,c,c,c,c,c,c,c,c,c,c,c,c,c,c,c,c,c,c,c,c,c,c,c,c,c,c,c,c,c,c,c,c,c,c,c,c,c,c,c,c,c,c,c,c,c,c,c,c,c,c,c,c,c
201718,Tax year,National,K03000001,Great Britain,Female,"Agriculture, food and related studies",Higher Education Institution,Swansea Metropolitan University,10007846,Wales,Wales,All,c,c,c,c,c,c,c,c,c,c,c,c,c,c,c,c,c,c,c,c,c,c,c,c,c,c,c,c,c,c,c,c,c,c,c,c,c,c,c,c,c,c,c,c,c,c,c,c,c,c,c,c,c,c,c,c,c,c,c,c,c,c,c,c,c,c,c,c,c,c,c,c,c,c,c
201718,Tax year,National,K03000001,Great Britain,Female,"Agriculture, food and related studies",Higher Education Institution,Teesside University,10007161,England,North East,All,15,0,0,15,0,7.7,53.8,84.6,92.3,15,0,0,15,9.1,0,63.6,90.9,90.9,c,c,c,c,c,c,c,c,c,c,c,c,c,c,c,c,c,c,c,c,c,c,c,c,c,c,c,c,c,c,c,c,c,5,40,5,20,c,c,5,180,5,180,c,c,0.8,0.8,c,3,3,c,38.5,45.5,c,23.1,27.3,c
201718,Tax year,National,K03000001,Great Britain,Female,"Agriculture, food and related studies",Higher Education Institution,The Manchester Metropolitan University,10004180,England,North West,All,c,c,c,c,c,c,c,c,c,c,c,c,c,c,c,c,c,c,c,c,c,c,c,c,c,c,c,c,c,c,c,c,c,c,c,c,c,c,c,c,c,c,c,c,c,c,c,c,c,c,c,c,c,c,c,c,c,c,c,c,c,c,c,c,c,c,c,c,c,c,c,c,c,c,c
201718,Tax year,National,K03000001,Great Britain,Female,"Agriculture, food and related studies",Higher Education Institution,The Nottingham Trent University,10004797,England,East Midlands,All,110,0,0,110,0,4.6,70.4,89.8,95.4,85,0,0,85,6,4.8,81.9,88,89.2,80,5.1,0,75,8.1,4.1,82.4,86.5,87.8,75,11000,15000,18200,70,15000,18200,20800,55,13900,15700,21900,75,11000,15000,18200,70,15000,18200,20800,60,13500,15700,20800,90,14.8,60,12.1,55,12.7,50,240,45,240,40,220,0.4,0.3,0.5,2,2,2,81.5,69.9,74.3,44.4,49.4,48.6
201718,Tax year,National,K03000001,Great Britain,Female,"Agriculture, food and related studies",Higher Education Institution,The Royal Veterinary College,10007779,England,London,All,50,0,2.2,45,0,0,42.2,82.2,100,40,0,0,40,2.5,0,40,82.5,97.5,60,3.4,0,60,1.8,5.4,60.7,87.5,92.9,20,14600,16800,23400,20,18200,25900,28700,35,25600,32100,34700,20,14600,16800,23400,20,18200,25900,28700,35,25600,32100,34700,45,13.6,40,23.7,55,9.6,35,300,35,320,45,320,0.1,0.1,0,1,1,1,97.8,95,92.9,77.8,87.5,78.6
201718,Tax year,National,K03000001,Great Britain,Female,"Agriculture, food and related studies",Higher Education Institution,The University of Aberdeen,10007783,Scotland,Scotland,All,c,c,c,c,c,c,c,c,c,c,c,c,c,c,c,c,c,c,c,c,c,c,c,c,c,c,c,c,c,c,c,c,c,c,c,c,c,c,c,c,c,c,c,c,c,c,c,c,c,c,c,c,c,c,c,c,c,c,c,c,c,c,c,c,c,c,c,c,c,c,c,c,c,c,c
201718,Tax year,National,K03000001,Great Britain,Female,"Agriculture, food and related studies",Higher Education Institution,The University of Brighton,10000886,England,South East,All,c,c,c,c,c,c,c,c,c,c,c,c,c,c,c,c,c,c,20,0,0,20,12.5,12.5,68.8,75,75,c,c,c,c,c,c,c,c,c,c,c,c,c,c,c,c,c,c,c,c,c,c,c,c,c,c,c,c,10,25,c,c,c,c,10,240,c,c,0.3,c,c,2,c,c,50,c,c,43.8
201718,Tax year,National,K03000001,Great Britain,Female,"Agriculture, food and related studies",Higher Education Institution,The University of Bristol,10007786,England,South West,All,15,0,0,15,0,8.3,50,75,91.7,c,c,c,c,c,c,c,c,c,c,c,c,c,c,c,c,c,c,c,c,c,c,c,c,c,c,c,c,c,c,c,c,c,c,c,c,c,c,c,c,c,c,10,11.1,c,c,c,c,10,340,c,c,c,c,0,c,c,1,c,c,75,c,c,66.7,c,c
201718,Tax year,National,K03000001,Great Britain,Female,"Agriculture, food and related studies",Higher Education Institution,The University of Central Lancashire,10007141,England,North West,All,45,0,0,45,2.2,8.9,80,88.9,88.9,50,0,0,50,4.3,2.1,74.5,93.6,93.6,60,3.4,0,60,5.4,5.4,82.1,89.3,89.3,35,14200,16100,17900,35,12900,17300,19700,40,14900,17500,20800,35,13500,16100,17900,35,12900,17500,19700,45,14600,17400,20900,35,2.9,40,8.3,35,0,20,230,20,220,15,240,0.5,0.5,0.3,2,2,2,75.6,76.6,62.5,35.6,34,23.2
201718,Tax year,National,K03000001,Great Britain,Female,"Agriculture, food and related studies",Higher Education Institution,The University of Dundee,10007852,Scotland,Scotland,All,c,c,c,c,c,c,c,c,c,c,c,c,c,c,c,c,c,c,c,c,c,c,c,c,c,c,c,c,c,c,c,c,c,c,c,c,c,c,c,c,c,c,c,c,c,c,c,c,c,c,c,c,c,c,c,c,c,c,c,c,c,c,c,c,c,c,c,c,c,c,c,c,c,c,c
201718,Tax year,National,K03000001,Great Britain,Female,"Agriculture, food and related studies",Higher Education Institution,The University of East Anglia,10007789,England,East of England,All,c,c,c,c,c,c,c,c,c,c,c,c,c,c,c,c,c,c,c,c,c,c,c,c,c,c,c,c,c,c,c,c,c,c,c,c,c,c,c,c,c,c,c,c,c,c,c,c,c,c,c,c,c,c,c,c,c,c,c,c,c,c,c,c,c,c,c,c,c,c,c,c,c,c,c
201718,Tax year,National,K03000001,Great Britain,Female,"Agriculture, food and related studies",Higher Education Institution,The University of Edinburgh,10007790,Scotland,Scotland,All,c,c,c,c,c,c,c,c,c,c,c,c,c,c,c,c,c,c,c,c,c,c,c,c,c,c,c,c,c,c,c,c,c,c,c,c,c,c,c,c,c,c,c,c,c,c,c,c,c,c,c,c,c,c,c,c,c,c,c,c,c,c,c,c,c,c,c,c,c,c,c,c,c,c,c
201718,Tax year,National,K03000001,Great Britain,Female,"Agriculture, food and related studies",Higher Education Institution,The University of Essex,10007791,England,East of England,All,c,c,c,c,c,c,c,c,c,c,c,c,c,c,c,c,c,c,c,c,c,c,c,c,c,c,c,c,c,c,c,c,c,c,c,c,c,c,c,c,c,c,c,c,c,c,c,c,c,c,c,c,c,c,c,c,c,c,c,c,c,c,c,c,c,c,c,c,c,c,c,c,c,c,c
201718,Tax year,National,K03000001,Great Britain,Female,"Agriculture, food and related studies",Higher Education Institution,The University of Glasgow,10007794,Scotland,Scotland,All,20,0,0,20,6.2,0,37.5,81.2,93.8,c,c,c,c,c,c,c,c,c,c,c,c,c,c,c,c,c,c,c,c,c,c,c,c,c,c,c,c,c,c,c,c,c,c,c,c,c,c,c,c,c,c,NA,0,c,c,c,c,NA,NA,c,c,c,c,NA,c,c,NA,c,c,0,c,c,0,c,c
201718,Tax year,National,K03000001,Great Britain,Female,"Agriculture, food and related studies",Higher Education Institution,The University of Greenwich,10007146,England,London,All,70,0,0,70,6.1,15.2,65.2,75.8,78.8,65,1.5,0,65,6.2,9.4,70.3,84.4,84.4,65,0,0,65,6.5,6.5,74.2,87.1,87.1,40,11300,16400,18600,45,8800,14400,18200,45,14600,19000,27000,40,11200,16400,18600,45,9500,15700,18200,45,14700,18800,25600,50,26.1,40,22.2,30,22.2,30,200,20,200,15,230,0.7,0.7,0.5,2,2,2,69.7,56.2,43.5,39.4,31.2,19.4
201718,Tax year,National,K03000001,Great Britain,Female,"Agriculture, food and related studies",Higher Education Institution,The University of Huddersfield,10007148,England,Yorkshire and the Humber,All,c,c,c,c,c,c,c,c,c,c,c,c,c,c,c,c,c,c,c,c,c,c,c,c,c,c,c,c,c,c,c,c,c,c,c,c,c,c,c,c,c,c,c,c,c,c,c,c,c,c,c,c,c,c,c,c,c,c,c,c,c,c,c,c,c,c,c,c,c,c,c,c,c,c,c
201718,Tax year,National,K03000001,Great Britain,Female,"Agriculture, food and related studies",Higher Education Institution,The University of Kent,10007150,England,South East,All,20,0,0,20,14.6,14.6,56.3,65,70.9,20,0,0,20,4.2,17.7,58,78.2,78.2,15,3.3,10,15,3.8,7.7,76.9,84.6,88.5,c,c,c,c,c,c,c,c,c,c,c,c,c,c,c,c,c,c,c,c,c,c,c,c,10,5.2,15,4.2,5,0,5,320,10,310,5,300,0,0.1,0.1,1,1,1,36.9,60.5,34.6,22.3,28.6,19.2
201718,Tax year,National,K03000001,Great Britain,Female,"Agriculture, food and related studies",Higher Education Institution,The University of Leeds,10007795,England,Yorkshire and the Humber,All,15,3.6,0,15,7.4,3.7,70.4,77.8,88.9,25,0,2.4,25,9.8,2.4,73.2,87.8,87.8,20,0,0,20,13.9,2.8,69.4,80.6,83.3,c,c,c,c,15,24800,27700,31800,15,26600,32800,37000,c,c,c,c,15,24800,27700,31800,15,26600,32800,37000,15,4,20,0,20,9.1,15,320,20,320,15,300,0,0.1,0.1,1,1,1,92.6,95.1,91.7,88.9,75.6,80.6
201718,Tax year,National,K03000001,Great Britain,Female,"Agriculture, food and related studies",Higher Education Institution,The University of Lincoln,10007151,England,East Midlands,All,50,0,0,50,0,2.2,58.7,87,97.8,95,0,1.1,90,13.3,4.4,66.7,78.9,82.2,75,1.4,0,70,5.7,4.3,74.3,88.6,90,25,12400,15700,19700,60,13900,16800,24100,55,15700,22300,27400,30,12400,15700,19700,60,13100,16800,24200,55,15700,22300,27400,45,18.6,80,16.7,65,13.8,25,250,55,240,55,240,0.3,0.3,0.3,2,2,2,93.5,86.7,92.9,52.2,60,75.7
201718,Tax year,National,K03000001,Great Britain,Female,"Agriculture, food and related studies",Higher Education Institution,The University of Liverpool,10006842,England,North West,All,20,0,0,20,0,5.9,41.2,70.6,94.1,20,0,0,20,0,10.5,21.1,68.4,89.5,20,0,0,20,5,5,60,80,90,c,c,c,c,c,c,c,c,15,23400,29900,34300,c,c,c,c,c,c,c,c,15,23400,29900,34300,20,0,20,10.5,20,5,15,320,20,320,20,330,0,0.1,0,1,1,1,100,100,100,70.6,94.7,80
201718,Tax year,National,K03000001,Great Britain,Female,"Agriculture, food and related studies",Higher Education Institution,The University of Northampton,10007138,England,East Midlands,All,c,c,c,c,c,c,c,c,c,c,c,c,c,c,c,c,c,c,15,0,0,15,7.7,0,92.3,92.3,92.3,c,c,c,c,c,c,c,c,15,8800,16400,23700,c,c,c,c,c,c,c,c,15,10200,16400,23700,c,c,c,c,15,18.2,c,c,c,c,10,220,c,c,0.5,c,c,2,c,c,84.6,c,c,69.2
201718,Tax year,National,K03000001,Great Britain,Female,"Agriculture, food and related studies",Higher Education Institution,The University of Reading,10007802,England,South East,All,55,0,0,55,2.9,14.7,67.6,80.4,82.4,55,0,0,55,10.6,6.7,73.1,78.8,82.7,50,0,0,50,3.3,5.5,69.2,85.7,91.2,35,19700,23000,25600,40,16400,24100,29200,35,23000,27000,36500,35,19000,23000,25600,40,16400,24100,29200,35,23000,27000,36500,50,8.5,45,6.9,45,14.6,35,280,40,300,40,280,0.2,0.2,0.1,1,1,1,92.2,83.7,97.8,67.6,72.1,84.6
201718,Tax year,National,K03000001,Great Britain,Female,"Agriculture, food and related studies",Higher Education Institution,The University of Stirling,10007804,Scotland,Scotland,All,c,c,c,c,c,c,c,c,c,c,c,c,c,c,c,c,c,c,c,c,c,c,c,c,c,c,c,c,c,c,c,c,c,c,c,c,c,c,c,c,c,c,c,c,c,c,c,c,c,c,c,c,c,c,c,c,c,c,c,c,c,c,c,c,c,c,c,c,c,c,c,c,c,c,c
201718,Tax year,National,K03000001,Great Britain,Female,"Agriculture, food and related studies",Higher Education Institution,The University of Surrey,10007160,England,South East,All,c,c,c,c,c,c,c,c,c,c,c,c,c,c,c,c,c,c,c,c,c,c,c,c,c,c,c,c,c,c,c,c,c,c,c,c,c,c,c,c,c,c,c,c,c,c,c,c,c,c,c,c,c,c,c,c,c,c,c,c,c,c,c,c,c,c,c,c,c,c,c,c,c,c,c
201718,Tax year,National,K03000001,Great Britain,Female,"Agriculture, food and related studies",Higher Education Institution,University College Birmingham,10000712,England,West Midlands,All,45,0,0,45,4.9,9.8,78,82.9,85.4,25,0,0,25,4.8,0,90.5,95.2,95.2,30,7.7,0,25,12.5,8.3,70.8,75,79.2,35,16600,20300,23500,20,13500,19300,23400,20,19300,23700,28500,35,16600,20300,23500,20,13500,19300,23400,20,19300,23700,28500,30,7.1,20,17.6,15,21.4,20,230,20,210,10,250,0.5,0.7,0.2,2,2,1,68.3,81,58.3,48.8,76.2,41.7
201718,Tax year,National,K03000001,Great Britain,Female,"Agriculture, food and related studies",Higher Education Institution,University of Abertay Dundee,10007849,Scotland,Scotland,All,45,2.4,0,40,5,0,37.5,90,95,c,c,c,c,c,c,c,c,c,c,c,c,c,c,c,c,c,c,15,17200,19300,21900,c,c,c,c,c,c,c,c,15,17200,19300,21900,c,c,c,c,c,c,c,c,NA,0,c,c,c,c,NA,NA,c,c,c,c,NA,c,c,NA,c,c,0,c,c,0,c,c
201718,Tax year,National,K03000001,Great Britain,Female,"Agriculture, food and related studies",Higher Education Institution,University of Bedfordshire,10007152,England,East of England,All,c,c,c,c,c,c,c,c,c,c,c,c,c,c,c,c,c,c,c,c,c,c,c,c,c,c,c,c,c,c,c,c,c,c,c,c,c,c,c,c,c,c,c,c,c,c,c,c,c,c,c,c,c,c,c,c,c,c,c,c,c,c,c,c,c,c,c,c,c,c,c,c,c,c,c
201718,Tax year,National,K03000001,Great Britain,Female,"Agriculture, food and related studies",Higher Education Institution,University of Chester,10007848,England,North West,All,105,0,0,105,3.8,8.7,76.3,86.1,87.5,65,0,0,65,4.7,4.7,77.6,90.6,90.6,55,0,0,55,5.5,7.9,78.8,86.7,86.7,80,10600,12800,16800,50,15000,17200,20800,45,13100,17500,21900,80,10600,13500,16800,50,13900,16800,20800,45,13100,17500,21900,75,15.8,55,18.1,45,15.5,35,260,30,240,30,220,0.2,0.3,0.5,1,2,2,71.2,80.7,80,30.4,43.7,47.3
201718,Tax year,National,K03000001,Great Britain,Female,"Agriculture, food and related studies",Higher Education Institution,University of Cumbria,10007842,England,North West,All,c,c,c,c,c,c,c,c,c,25,0,2.4,20,0,12.5,55,75,87.5,20,0,0,20,10.3,7.7,69.2,76.9,82.1,c,c,c,c,15,10600,12800,17200,c,c,c,c,c,c,c,c,15,10600,12900,17200,c,c,c,c,c,c,20,12.9,15,12.5,c,c,15,240,10,240,c,0.3,0.3,c,2,2,c,77.5,61.5,c,67.5,41
201718,Tax year,National,K03000001,Great Britain,Female,"Agriculture, food and related studies",Higher Education Institution,University of Newcastle-upon-Tyne,10007799,England,North East,All,30,0,0,30,3.8,3.8,75,86.5,92.3,20,0,0,20,6.2,6.2,75,87.5,87.5,25,0,0,25,4.8,4.8,76.2,85.7,90.5,20,13900,20400,24800,15,15500,25400,34700,15,23400,30300,34700,20,13900,20400,24800,15,19300,28800,37200,15,23400,30300,34700,30,7.7,20,0,20,20,20,300,15,320,15,260,0.1,0.1,0.2,1,1,1,100,100,95.2,75,68.8,71.4
201718,Tax year,National,K03000001,Great Britain,Female,"Agriculture, food and related studies",Higher Education Institution,University of Northumbria at Newcastle,10001282,England,North East,All,15,0,0,15,0,15.4,69.2,76.9,84.6,c,c,c,c,c,c,c,c,c,c,c,c,c,c,c,c,c,c,c,c,c,c,c,c,c,c,c,c,c,c,c,c,c,c,c,c,c,c,c,c,c,c,15,0,c,c,c,c,15,260,c,c,c,c,0.2,c,c,1,c,c,100,c,c,84.6,c,c
201718,Tax year,National,K03000001,Great Britain,Female,"Agriculture, food and related studies",Higher Education Institution,University of Nottingham,10007154,England,East Midlands,All,55,0,0,55,1.9,4.9,49.5,66,93.2,55,0,0,55,5.6,0,68.7,85,94.4,55,0,0.9,55,0,6.5,69.4,88,93.5,30,14200,22300,25600,40,22300,25600,27400,40,21200,24800,30700,30,14200,22300,25600,40,22300,25600,27400,40,21200,24800,30300,50,7.2,55,9.4,55,12.3,45,320,50,320,50,300,0,0.1,0.1,1,1,1,94.2,100,98.1,79.6,87.5,92.6
201718,Tax year,National,K03000001,Great Britain,Female,"Agriculture, food and related studies",Higher Education Institution,University of Plymouth,10007801,England,South West,All,35,0,0,35,0,9.7,77.4,87.1,90.3,65,1.5,0,65,6.2,4.7,75,87.5,89.1,90,2.3,4.5,85,6.1,6.1,82.9,86.6,87.8,25,13500,16100,17700,45,14100,16400,19000,60,13100,17300,23000,25,13500,16100,17700,45,14200,16500,19000,60,11600,17200,23100,20,11.1,45,22.7,50,22.9,15,260,25,260,35,240,0.2,0.2,0.3,1,1,2,58.1,68.8,58.5,48.4,37.5,37.8
201718,Tax year,National,K03000001,Great Britain,Female,"Agriculture, food and related studies",Higher Education Institution,University of South Wales,10007793,Wales,Wales,All,c,c,c,c,c,c,c,c,c,c,c,c,c,c,c,c,c,c,c,c,c,c,c,c,c,c,c,c,c,c,c,c,c,c,c,c,c,c,c,c,c,c,c,c,c,c,c,c,c,c,c,c,c,c,c,c,c,c,c,c,c,c,c,c,c,c,c,c,c,c,c,c,c,c,c
201718,Tax year,National,K03000001,Great Britain,Female,"Agriculture, food and related studies",Higher Education Institution,University of the Highlands and Islands,10007114,Scotland,Scotland,All,c,c,c,c,c,c,c,c,c,15,0,0,15,7.7,0,76.9,92.3,92.3,c,c,c,c,c,c,c,c,c,c,c,c,c,c,c,c,c,c,c,c,c,c,c,c,c,c,c,c,c,c,c,c,c,c,c,NA,0,c,c,c,c,NA,NA,c,c,c,NA,c,c,NA,c,c,0,c,c,0,c
201718,Tax year,National,K03000001,Great Britain,Female,"Agriculture, food and related studies",Higher Education Institution,"University of the West of England, Bristol",10007164,England,South West,All,c,c,c,c,c,c,c,c,c,130,0,0.8,130,5.7,6,69.3,84,88.4,95,2.2,0,90,8.2,3.6,69,86,88.2,c,c,c,c,80,15300,18200,23400,60,16100,20100,25700,c,c,c,c,85,14700,18200,22600,60,15700,19700,25600,c,c,100,12.2,70,12.3,c,c,70,240,55,220,c,0.3,0.5,c,2,2,c,78,75.9,c,52.1,59.8
201718,Tax year,National,K03000001,Great Britain,Female,"Agriculture, food and related studies",Higher Education Institution,University of Wales Trinity Saint David,10007858,Wales,Wales,All,c,c,c,c,c,c,c,c,c,c,c,c,c,c,c,c,c,c,c,c,c,c,c,c,c,c,c,c,c,c,c,c,c,c,c,c,c,c,c,c,c,c,c,c,c,c,c,c,c,c,c,c,c,c,c,c,c,c,c,c,c,c,c,c,c,c,c,c,c,c,c,c,c,c,c
201718,Tax year,National,K03000001,Great Britain,Female,"Agriculture, food and related studies",Higher Education Institution,University of Worcester,10007139,England,West Midlands,All,c,c,c,c,c,c,c,c,c,c,c,c,c,c,c,c,c,c,15,0,0,15,9.1,0,72.7,81.8,90.9,c,c,c,c,c,c,c,c,c,c,c,c,c,c,c,c,c,c,c,c,c,c,c,c,c,c,c,c,5,0,c,c,c,c,5,110,c,c,1,c,c,3,c,c,27.3,c,c,18.2
201718,Tax year,National,K03000001,Great Britain,Female,"Agriculture, food and related studies",Higher Education Institution,Writtle College,10007657,England,East of England,All,75,0,0,75,5.6,5.6,67.6,81.7,88.7,125,2.4,0.8,120,5.9,5,77.3,85.7,89.1,85,4.8,0,80,8.8,3.8,80,86.2,87.5,45,10500,15900,17600,80,15700,19300,24100,55,16400,19000,24800,50,10200,15500,17500,85,15700,18400,23500,65,11700,18300,24100,60,16.1,90,14.6,60,12.5,35,200,55,220,25,220,0.7,0.5,0.5,2,2,2,78.9,74.8,70,45.1,45.4,31.2
201718,Tax year,National,K03000001,Great Britain,Female,Allied health,Alternative Provider,BPP University Limited,10031982,England,London,All,25,8.7,4.3,20,0,0,95,100,100,c,c,c,c,c,c,c,c,c,c,c,c,c,c,c,c,c,c,c,c,c,c,c,c,c,c,c,c,c,c,20,12300,20000,26200,c,c,c,c,c,c,c,c,5,0,c,c,c,c,5,240,c,c,c,c,0.5,c,c,2,c,c,10,c,c,10,c,c
201718,Tax year,National,K03000001,Great Britain,Female,Allied health,Alternative Provider,CWR,10007361,England,South East,All,15,0,0,15,15.4,0,76.9,84.6,84.6,c,c,c,c,c,c,c,c,c,c,c,c,c,c,c,c,c,c,c,c,c,c,c,c,c,c,c,c,c,c,c,c,c,c,c,c,c,c,c,c,c,c,NA,0,c,c,c,c,NA,NA,c,c,c,c,NA,c,c,NA,c,c,0,c,c,0,c,c
201718,Tax year,National,K03000001,Great Britain,Female,Allied health,Alternative Provider,International College of Oriental Medicine (U.K.) Limited(The),10023445,England,South East,All,c,c,c,c,c,c,c,c,c,c,c,c,c,c,c,c,c,c,c,c,c,c,c,c,c,c,c,c,c,c,c,c,c,c,c,c,c,c,c,c,c,c,c,c,c,c,c,c,c,c,c,c,c,c,c,c,c,c,c,c,c,c,c,c,c,c,c,c,c,c,c,c,c,c,c
201718,Tax year,National,K03000001,Great Britain,Female,Allied health,Alternative Provider,Matrix College of Counselling and Psychotherapy Ltd,10023453,England,East Midlands,All,c,c,c,c,c,c,c,c,c,c,c,c,c,c,c,c,c,c,c,c,c,c,c,c,c,c,c,c,c,c,c,c,c,c,c,c,c,c,c,c,c,c,c,c,c,c,c,c,c,c,c,c,c,c,c,c,c,c,c,c,c,c,c,c,c,c,c,c,c,c,c,c,c,c,c
201718,Tax year,National,K03000001,Great Britain,Female,Allied health,Alternative Provider,Northern College of Acupuncture,10004740,England,Yorkshire and the Humber,All,20,0,0,20,0,5.6,83.3,94.4,94.4,c,c,c,c,c,c,c,c,c,c,c,c,c,c,c,c,c,c,c,c,c,c,c,c,c,c,c,c,c,c,c,c,c,c,c,c,c,c,c,c,c,c,NA,0,c,c,c,c,NA,NA,c,c,c,c,NA,c,c,NA,c,c,0,c,c,0,c,c
201718,Tax year,National,K03000001,Great Britain,Female,Allied health,Alternative Provider,Sherwood Counselling & Psychotherapy Limited,10053279,England,East Midlands,All,25,4.8,0,20,5,5,75,85,90,c,c,c,c,c,c,c,c,c,c,c,c,c,c,c,c,c,c,15,12000,16400,24500,c,c,c,c,c,c,c,c,15,14200,16400,24500,c,c,c,c,c,c,c,c,NA,0,c,c,c,c,NA,NA,c,c,c,c,NA,c,c,NA,c,c,0,c,c,0,c,c
201718,Tax year,National,K03000001,Great Britain,Female,Allied health,Alternative Provider,The College of Integrated Chinese Medicine,10001546,England,South East,All,55,3.8,0,55,9.8,11.8,78.4,78.4,78.4,c,c,c,c,c,c,c,c,c,c,c,c,c,c,c,c,c,c,20,6600,9700,15200,c,c,c,c,c,c,c,c,30,6600,10000,18600,c,c,c,c,c,c,c,c,5,0,c,c,c,c,NA,NA,c,c,c,c,NA,c,c,NA,c,c,2,c,c,0,c,c
201718,Tax year,National,K03000001,Great Britain,Female,Allied health,Alternative Provider,The Metanoia Institute,10004320,England,London,All,20,10.5,0,20,17.6,11.8,70.6,70.6,70.6,c,c,c,c,c,c,c,c,c,c,c,c,c,c,c,c,c,c,c,c,c,c,c,c,c,c,c,c,c,c,c,c,c,c,c,c,c,c,c,c,c,c,NA,0,c,c,c,c,NA,NA,c,c,c,c,NA,c,c,NA,c,c,0,c,c,0,c,c
201718,Tax year,National,K03000001,Great Britain,Female,Allied health,Further Education College,Accrington and Rossendale College,10000093,England,North West,All,c,c,c,c,c,c,c,c,c,15,4.2,0,15,8.7,4.3,69.6,87,87,c,c,c,c,c,c,c,c,c,c,c,c,c,c,c,c,c,c,c,c,c,c,c,c,c,c,c,c,c,c,c,c,c,c,c,5,0,c,c,c,c,0,280,c,c,c,0.3,c,c,2,c,c,4.3,c,c,0,c
201718,Tax year,National,K03000001,Great Britain,Female,Allied health,Further Education College,Birmingham Metropolitan College,10006442,England,West Midlands,All,c,c,c,c,c,c,c,c,c,20,0,0,20,0,0,81.2,93.8,100,c,c,c,c,c,c,c,c,c,c,c,c,c,c,c,c,c,c,c,c,c,c,c,c,c,c,c,c,c,c,c,c,c,c,c,5,0,c,c,c,c,5,260,c,c,c,0.4,c,c,2,c,c,18.8,c,c,6.2,c
201718,Tax year,National,K03000001,Great Britain,Female,Allied health,Further Education College,Blackpool and the Fylde College,10000754,England,North West,All,c,c,c,c,c,c,c,c,c,c,c,c,c,c,c,c,c,c,c,c,c,c,c,c,c,c,c,c,c,c,c,c,c,c,c,c,c,c,c,c,c,c,c,c,c,c,c,c,c,c,c,c,c,c,c,c,c,c,c,c,c,c,c,c,c,c,c,c,c,c,c,c,c,c,c
201718,Tax year,National,K03000001,Great Britain,Female,Allied health,Further Education College,Bradford College,10000840,England,Yorkshire and the Humber,All,60,0,0,60,5.4,8.9,64.3,82.1,85.7,65,1.6,0,60,8.3,1.7,73.3,86.7,90,40,0,0,40,13.9,13.9,55.6,72.2,72.2,35,11700,14200,19000,45,9100,16400,21200,20,13500,17500,20800,40,11300,14100,17100,45,8900,16200,21200,20,13500,17500,20800,25,9.5,35,17.1,15,0,15,200,30,130,10,140,0.8,0.9,0.9,3,3,3,37.5,58.3,41.7,23.2,43.3,25
201718,Tax year,National,K03000001,Great Britain,Female,Allied health,Further Education College,Chesterfield College,10001378,England,East Midlands,All,c,c,c,c,c,c,c,c,c,c,c,c,c,c,c,c,c,c,c,c,c,c,c,c,c,c,c,c,c,c,c,c,c,c,c,c,c,c,c,c,c,c,c,c,c,c,c,c,c,c,c,c,c,c,c,c,c,c,c,c,c,c,c,c,c,c,c,c,c,c,c,c,c,c,c
201718,Tax year,National,K03000001,Great Britain,Female,Allied health,Further Education College,City of Bristol College,10001467,England,South West,All,c,c,c,c,c,c,c,c,c,25,0,0,25,0,0,4.5,86.4,100,c,c,c,c,c,c,c,c,c,c,c,c,c,c,c,c,c,c,c,c,c,c,c,c,c,c,c,c,c,c,c,c,c,c,c,10,50,c,c,c,c,5,180,c,c,c,0.8,c,c,3,c,c,27.3,c,c,22.7,c
201718,Tax year,National,K03000001,Great Britain,Female,Allied health,Further Education College,Colchester Institute,10001535,England,East of England,All,30,0,0,30,7.4,0,63,88.9,92.6,c,c,c,c,c,c,c,c,c,c,c,c,c,c,c,c,c,c,15,8000,12800,17900,c,c,c,c,c,c,c,c,20,8000,13500,17600,c,c,c,c,c,c,c,c,5,0,c,c,c,c,5,80,c,c,c,c,1,c,c,3,c,c,3.7,c,c,3.7,c,c
201718,Tax year,National,K03000001,Great Britain,Female,Allied health,Further Education College,Cornwall College,10001696,England,South West,All,c,c,c,c,c,c,c,c,c,c,c,c,c,c,c,c,c,c,c,c,c,c,c,c,c,c,c,c,c,c,c,c,c,c,c,c,c,c,c,c,c,c,c,c,c,c,c,c,c,c,c,c,c,c,c,c,c,c,c,c,c,c,c,c,c,c,c,c,c,c,c,c,c,c,c
201718,Tax year,National,K03000001,Great Britain,Female,Allied health,Further Education College,Croydon College,10001778,England,London,All,35,0,0,35,5.9,11.8,61.8,82.4,82.4,20,0,0,20,10,5,60,75,85,c,c,c,c,c,c,c,c,c,20,9100,16400,22600,15,9800,15700,24200,c,c,c,c,20,9100,16400,22600,15,9800,15700,24200,c,c,c,c,5,0,0,0,c,c,5,100,0,100,c,c,1,1,c,3,3,c,2.9,0,c,2.9,0,c
201718,Tax year,National,K03000001,Great Britain,Female,Allied health,Further Education College,Eastleigh College,10002143,England,South East,All,c,c,c,c,c,c,c,c,c,c,c,c,c,c,c,c,c,c,c,c,c,c,c,c,c,c,c,c,c,c,c,c,c,c,c,c,c,c,c,c,c,c,c,c,c,c,c,c,c,c,c,c,c,c,c,c,c,c,c,c,c,c,c,c,c,c,c,c,c,c,c,c,c,c,c
201718,Tax year,National,K03000001,Great Britain,Female,Allied health,Further Education College,Exeter College,10002370,England,South West,All,c,c,c,c,c,c,c,c,c,c,c,c,c,c,c,c,c,c,c,c,c,c,c,c,c,c,c,c,c,c,c,c,c,c,c,c,c,c,c,c,c,c,c,c,c,c,c,c,c,c,c,c,c,c,c,c,c,c,c,c,c,c,c,c,c,c,c,c,c,c,c,c,c,c,c
201718,Tax year,National,K03000001,Great Britain,Female,Allied health,Further Education College,Grimsby Institute of Further and Higher Education,10007938,England,Yorkshire and the Humber,All,35,3.2,0,30,3.3,10,76.7,86.7,86.7,40,0,0,40,0,5.3,76.3,84.2,94.7,40,2.5,0,40,7.7,5.1,74.4,87.2,87.2,20,11100,13000,17600,30,11700,16400,20400,25,12000,15000,18600,25,11300,12800,17500,30,11400,16400,20400,30,12000,14800,18600,5,0,5,0,5,0,5,168,5,240,5,156.6666667,0.9,0.5,0.9,3,2,3,6.7,13.2,10.3,3.3,10.5,5.1
201718,Tax year,National,K03000001,Great Britain,Female,Allied health,Further Education College,Guildford College of Further and Higher Education,10002815,England,South East,All,20,0,0,20,16.7,5.6,72.2,77.8,77.8,15,0,7.1,15,0,0,100,100,100,20,0,0,20,6.2,0,93.8,93.8,93.8,c,c,c,c,c,c,c,c,c,c,c,c,15,3100,15100,21500,c,c,c,c,15,16900,20200,27800,NA,0,NA,0,NA,0,NA,NA,NA,NA,NA,NA,NA,NA,NA,NA,NA,NA,0,0,0,0,0,0
201718,Tax year,National,K03000001,Great Britain,Female,Allied health,Further Education College,Havering College of Further and Higher Education,10002935,England,London,All,c,c,c,c,c,c,c,c,c,15,0,0,15,0,21.4,75,78.6,78.6,c,c,c,c,c,c,c,c,c,c,c,c,c,c,c,c,c,c,c,c,c,c,c,c,c,c,c,c,c,c,c,c,c,c,c,NA,0,c,c,c,c,NA,NA,c,c,c,NA,c,c,NA,c,c,0,c,c,0,c
201718,Tax year,National,K03000001,Great Britain,Female,Allied health,Further Education College,Henley College Coventry,10003010,England,West Midlands,All,c,c,c,c,c,c,c,c,c,c,c,c,c,c,c,c,c,c,c,c,c,c,c,c,c,c,c,c,c,c,c,c,c,c,c,c,c,c,c,c,c,c,c,c,c,c,c,c,c,c,c,c,c,c,c,c,c,c,c,c,c,c,c,c,c,c,c,c,c,c,c,c,c,c,c
201718,Tax year,National,K03000001,Great Britain,Female,Allied health,Further Education College,Kingston College,10003674,England,London,All,20,0,0,20,6.2,0,87.5,93.8,93.8,20,0,5.9,20,0,6.2,93.8,93.8,93.8,15,0,0,15,7.7,0,92.3,92.3,92.3,15,8000,14600,20100,15,6900,17500,32800,c,c,c,c,15,8000,11700,20100,15,12200,16400,29000,c,c,c,c,NA,0,NA,0,NA,0,NA,NA,NA,NA,NA,NA,NA,NA,NA,NA,NA,NA,0,0,0,0,0,0
201718,Tax year,National,K03000001,Great Britain,Female,Allied health,Further Education College,Lincoln College,10003928,England,East Midlands,All,15,7.7,0,15,25,0,75,75,75,c,c,c,c,c,c,c,c,c,c,c,c,c,c,c,c,c,c,c,c,c,c,c,c,c,c,c,c,c,c,c,c,c,c,c,c,c,c,c,c,c,c,NA,0,c,c,c,c,NA,NA,c,c,c,c,NA,c,c,NA,c,c,0,c,c,0,c,c
201718,Tax year,National,K03000001,Great Britain,Female,Allied health,Further Education College,Moulton College,10004442,England,East Midlands,All,c,c,c,c,c,c,c,c,c,c,c,c,c,c,c,c,c,c,c,c,c,c,c,c,c,c,c,c,c,c,c,c,c,c,c,c,c,c,c,c,c,c,c,c,c,c,c,c,c,c,c,c,c,c,c,c,c,c,c,c,c,c,c,c,c,c,c,c,c,c,c,c,c,c,c
201718,Tax year,National,K03000001,Great Britain,Female,Allied health,Further Education College,NCG,10004599,England,North East,All,c,c,c,c,c,c,c,c,c,c,c,c,c,c,c,c,c,c,c,c,c,c,c,c,c,c,c,c,c,c,c,c,c,c,c,c,c,c,c,c,c,c,c,c,c,c,c,c,c,c,c,c,c,c,c,c,c,c,c,c,c,c,c,c,c,c,c,c,c,c,c,c,c,c,c
201718,Tax year,National,K03000001,Great Britain,Female,Allied health,Further Education College,NCG,10004599,England,North West,All,25,0,0,25,2.3,4.7,55.8,83.7,93,55,0,0,55,9.3,3.7,70.4,83.3,87,c,c,c,c,c,c,c,c,c,c,c,c,c,35,15000,18200,21900,c,c,c,c,15,8500,11300,13100,40,13700,18100,21900,c,c,c,c,5,33.3,10,0,c,c,5,240,10,120,c,c,0.5,0.9,c,2,3,c,14,18.5,c,4.7,11.1,c
201718,Tax year,National,K03000001,Great Britain,Female,Allied health,Further Education College,New College Durham,10004576,England,North East,All,25,0,0,25,0,19,71.4,81,81,20,0,0,20,16.7,0,55.6,83.3,83.3,55,1.9,7.5,50,20.8,6.2,68.8,72.9,72.9,15,16400,20400,20800,c,c,c,c,25,18200,22400,25200,15,17500,20400,20800,c,c,c,c,30,15200,21900,24900,5,0,5,0,5,0,5,235,5,220,5,220,0.6,0.7,0.6,2,2,2,19,22.2,8.3,19,16.7,6.2
201718,Tax year,National,K03000001,Great Britain,Female,Allied health,Further Education College,Newham College of Further Education,10004607,England,London,All,35,0,0,35,12.9,19.4,61.3,64.5,67.7,c,c,c,c,c,c,c,c,c,c,c,c,c,c,c,c,c,c,20,9800,11500,21000,c,c,c,c,c,c,c,c,20,8400,11000,19700,c,c,c,c,c,c,c,c,5,0,c,c,c,c,5,120,c,c,c,c,0.9,c,c,3,c,c,6.5,c,c,3.2,c,c
201718,Tax year,National,K03000001,Great Britain,Female,Allied health,Further Education College,North East Surrey College of Technology (NESCOT),10004686,England,South East,All,c,c,c,c,c,c,c,c,c,c,c,c,c,c,c,c,c,c,c,c,c,c,c,c,c,c,c,c,c,c,c,c,c,c,c,c,c,c,c,c,c,c,c,c,c,c,c,c,c,c,c,c,c,c,c,c,c,c,c,c,c,c,c,c,c,c,c,c,c,c,c,c,c,c,c
201718,Tax year,National,K03000001,Great Britain,Female,Allied health,Further Education College,Peter Symonds College,10005072,England,South East,All,c,c,c,c,c,c,c,c,c,c,c,c,c,c,c,c,c,c,c,c,c,c,c,c,c,c,c,c,c,c,c,c,c,c,c,c,c,c,c,c,c,c,c,c,c,c,c,c,c,c,c,c,c,c,c,c,c,c,c,c,c,c,c,c,c,c,c,c,c,c,c,c,c,c,c
201718,Tax year,National,K03000001,Great Britain,Female,Allied health,Further Education College,Petroc,10004676,England,South West,All,c,c,c,c,c,c,c,c,c,c,c,c,c,c,c,c,c,c,c,c,c,c,c,c,c,c,c,c,c,c,c,c,c,c,c,c,c,c,c,c,c,c,c,c,c,c,c,c,c,c,c,c,c,c,c,c,c,c,c,c,c,c,c,c,c,c,c,c,c,c,c,c,c,c,c
201718,Tax year,National,K03000001,Great Britain,Female,Allied health,Further Education College,Preston College,10005200,England,North West,All,c,c,c,c,c,c,c,c,c,c,c,c,c,c,c,c,c,c,c,c,c,c,c,c,c,c,c,c,c,c,c,c,c,c,c,c,c,c,c,c,c,c,c,c,c,c,c,c,c,c,c,c,c,c,c,c,c,c,c,c,c,c,c,c,c,c,c,c,c,c,c,c,c,c,c
201718,Tax year,National,K03000001,Great Britain,Female,Allied health,Further Education College,Somerset College,10005956,England,South West,All,15,0,0,15,16.7,0,50,66.7,83.3,15,0,0,15,0,0,81.8,100,100,c,c,c,c,c,c,c,c,c,c,c,c,c,c,c,c,c,c,c,c,c,c,c,c,c,c,c,c,c,c,c,c,c,5,0,5,0,c,c,0,80,5,80,c,c,1,1,c,3,3,c,8.3,9.1,c,0,9.1,c
201718,Tax year,National,K03000001,Great Britain,Female,Allied health,Further Education College,South Essex College of Further and Higher Education,10005981,England,East of England,All,c,c,c,c,c,c,c,c,c,c,c,c,c,c,c,c,c,c,c,c,c,c,c,c,c,c,c,c,c,c,c,c,c,c,c,c,c,c,c,c,c,c,c,c,c,c,c,c,c,c,c,c,c,c,c,c,c,c,c,c,c,c,c,c,c,c,c,c,c,c,c,c,c,c,c
201718,Tax year,National,K03000001,Great Britain,Female,Allied health,Further Education College,Southampton City College,10006020,England,South East,All,15,0,0,15,8.3,8.3,66.7,83.3,83.3,c,c,c,c,c,c,c,c,c,c,c,c,c,c,c,c,c,c,c,c,c,c,c,c,c,c,c,c,c,c,c,c,c,c,c,c,c,c,c,c,c,c,NA,0,c,c,c,c,NA,NA,c,c,c,c,NA,c,c,NA,c,c,0,c,c,0,c,c
201718,Tax year,National,K03000001,Great Britain,Female,Allied health,Further Education College,Stockport College,10006331,England,North West,All,c,c,c,c,c,c,c,c,c,c,c,c,c,c,c,c,c,c,c,c,c,c,c,c,c,c,c,c,c,c,c,c,c,c,c,c,c,c,c,c,c,c,c,c,c,c,c,c,c,c,c,c,c,c,c,c,c,c,c,c,c,c,c,c,c,c,c,c,c,c,c,c,c,c,c
201718,Tax year,National,K03000001,Great Britain,Female,Allied health,Further Education College,Sussex Downs College,10006432,England,South East,All,c,c,c,c,c,c,c,c,c,c,c,c,c,c,c,c,c,c,c,c,c,c,c,c,c,c,c,c,c,c,c,c,c,c,c,c,c,c,c,c,c,c,c,c,c,c,c,c,c,c,c,c,c,c,c,c,c,c,c,c,c,c,c,c,c,c,c,c,c,c,c,c,c,c,c
201718,Tax year,National,K03000001,Great Britain,Female,Allied health,Further Education College,Swindon College,10006463,England,South West,All,c,c,c,c,c,c,c,c,c,c,c,c,c,c,c,c,c,c,c,c,c,c,c,c,c,c,c,c,c,c,c,c,c,c,c,c,c,c,c,c,c,c,c,c,c,c,c,c,c,c,c,c,c,c,c,c,c,c,c,c,c,c,c,c,c,c,c,c,c,c,c,c,c,c,c
201718,Tax year,National,K03000001,Great Britain,Female,Allied health,Further Education College,"The College of Haringey, Enfield and North-East London",10001548,England,London,All,c,c,c,c,c,c,c,c,c,c,c,c,c,c,c,c,c,c,c,c,c,c,c,c,c,c,c,c,c,c,c,c,c,c,c,c,c,c,c,c,c,c,c,c,c,c,c,c,c,c,c,c,c,c,c,c,c,c,c,c,c,c,c,c,c,c,c,c,c,c,c,c,c,c,c
201718,Tax year,National,K03000001,Great Britain,Female,Allied health,Further Education College,The Oldham College,10006770,England,North West,All,c,c,c,c,c,c,c,c,c,15,0,0,15,4.3,0,73.9,95.7,95.7,c,c,c,c,c,c,c,c,c,c,c,c,c,c,c,c,c,c,c,c,c,c,c,c,c,c,c,c,c,c,c,c,c,c,c,5,33.3,c,c,c,c,5,60,c,c,c,1,c,c,3,c,c,26.1,c,c,8.7,c
201718,Tax year,National,K03000001,Great Britain,Female,Allied health,Further Education College,Wakefield College,10007289,England,Yorkshire and the Humber,All,c,c,c,c,c,c,c,c,c,c,c,c,c,c,c,c,c,c,c,c,c,c,c,c,c,c,c,c,c,c,c,c,c,c,c,c,c,c,c,c,c,c,c,c,c,c,c,c,c,c,c,c,c,c,c,c,c,c,c,c,c,c,c,c,c,c,c,c,c,c,c,c,c,c,c
201718,Tax year,National,K03000001,Great Britain,Female,Allied health,Further Education College,Warwickshire College,10007859,England,West Midlands,All,c,c,c,c,c,c,c,c,c,c,c,c,c,c,c,c,c,c,c,c,c,c,c,c,c,c,c,c,c,c,c,c,c,c,c,c,c,c,c,c,c,c,c,c,c,c,c,c,c,c,c,c,c,c,c,c,c,c,c,c,c,c,c,c,c,c,c,c,c,c,c,c,c,c,c
201718,Tax year,National,K03000001,Great Britain,Female,Allied health,Further Education College,Weston College of Further and Higher Education,10007459,England,South West,All,15,0,0,15,0,7.7,53.8,92.3,92.3,c,c,c,c,c,c,c,c,c,c,c,c,c,c,c,c,c,c,c,c,c,c,c,c,c,c,c,c,c,c,c,c,c,c,c,c,c,c,c,c,c,c,NA,0,c,c,c,c,NA,NA,c,c,c,c,NA,c,c,NA,c,c,0,c,c,0,c,c
201718,Tax year,National,K03000001,Great Britain,Female,Allied health,Further Education College,York College,10007709,England,Yorkshire and the Humber,All,c,c,c,c,c,c,c,c,c,c,c,c,c,c,c,c,c,c,c,c,c,c,c,c,c,c,c,c,c,c,c,c,c,c,c,c,c,c,c,c,c,c,c,c,c,c,c,c,c,c,c,c,c,c,c,c,c,c,c,c,c,c,c,c,c,c,c,c,c,c,c,c,c,c,c
201718,Tax year,National,K03000001,Great Britain,Female,Allied health,Higher Education Institution,Aberystwyth University,10007856,Wales,Wales,All,c,c,c,c,c,c,c,c,c,c,c,c,c,c,c,c,c,c,c,c,c,c,c,c,c,c,c,c,c,c,c,c,c,c,c,c,c,c,c,c,c,c,c,c,c,c,c,c,c,c,c,c,c,c,c,c,c,c,c,c,c,c,c,c,c,c,c,c,c,c,c,c,c,c,c
201718,Tax year,National,K03000001,Great Britain,Female,Allied health,Higher Education Institution,Anglia Ruskin University,10000291,England,East of England,All,145,0,0.7,145,3.5,2.1,66.9,88.7,94.4,65,1.6,1.6,60,1.7,5.1,57.6,88.1,93.2,40,0,0,40,8.1,10.8,67.6,81.1,81.1,95,16100,20300,24500,30,20400,26100,38000,20,17900,23400,41600,95,16100,20400,24500,35,20000,25600,37100,25,20400,26800,42300,90,8,45,9.8,30,7.7,70,260,40,250,25,280,0.4,0.5,0.3,2,2,2,61.3,69.5,70.3,48.6,64.4,64.9
201718,Tax year,National,K03000001,Great Britain,Female,Allied health,Higher Education Institution,Aston University,10007759,England,West Midlands,All,85,0,0,85,0,7.4,87.7,91.4,92.6,70,0,0,70,3,1.5,84.8,93.9,95.5,60,0,0,60,3.5,1.8,93,94.7,94.7,70,15300,21200,26300,55,31300,36500,40900,50,36900,41800,46400,70,15300,21200,26300,55,31400,37600,41200,55,36400,40800,46400,75,4,60,1.7,55,9.4,70,340,60,340,50,340,0.1,0.1,0,1,1,1,92.6,90.9,93,86.4,86.4,87.7
201718,Tax year,National,K03000001,Great Britain,Female,Allied health,Higher Education Institution,Bangor University,10007857,Wales,Wales,All,20,0,0,20,5.9,5.9,35.3,64.7,88.2,c,c,c,c,c,c,c,c,c,c,c,c,c,c,c,c,c,c,c,c,c,c,c,c,c,c,c,c,c,c,c,c,c,c,c,c,c,c,c,c,c,c,15,13.3,c,c,c,c,NA,NA,c,c,c,c,NA,c,c,NA,c,c,88.2,c,c,0,c,c
201718,Tax year,National,K03000001,Great Britain,Female,Allied health,Higher Education Institution,Bath Spa University,10000571,England,South West,All,20,5.4,5.4,20,0,0,66,100,100,30,0,0,30,7.1,3.6,71.4,89.3,89.3,35,0,0,35,0,4.4,86.7,92.6,95.6,15,17900,19300,21200,20,11700,18200,24500,30,17900,23700,32500,15,17900,19300,21200,20,11700,18200,24500,30,17900,23700,32500,15,18.7,20,5,30,9.7,10,260,15,280,25,260,0.4,0.3,0.4,2,2,2,64,71.4,76.4,58,53.6,66.5
201718,Tax year,National,K03000001,Great Britain,Female,Allied health,Higher Education Institution,Birkbeck College,10007760,England,London,All,c,c,c,c,c,c,c,c,c,c,c,c,c,c,c,c,c,c,c,c,c,c,c,c,c,c,c,c,c,c,c,c,c,c,c,c,c,c,c,c,c,c,c,c,c,c,c,c,c,c,c,c,c,c,c,c,c,c,c,c,c,c,c,c,c,c,c,c,c,c,c,c,c,c,c
201718,Tax year,National,K03000001,Great Britain,Female,Allied health,Higher Education Institution,Birmingham City University,10007140,England,West Midlands,All,100,1,0,100,3.1,2.1,83.5,94.8,94.8,110,0,0,110,3.6,10,77.3,84.5,86.4,80,2.5,0,80,5.1,3.8,80.8,89.7,91,80,19000,20800,24800,85,16100,22300,24500,60,16400,24100,28100,80,18800,20800,24800,85,16100,22300,24500,60,16200,24100,28500,45,9.1,60,8.5,35,12.5,40,300,45,280,25,280,0.2,0.3,0.3,1,2,2,45.4,53.6,41,41.2,40.9,29.5
201718,Tax year,National,K03000001,Great Britain,Female,Allied health,Higher Education Institution,Bournemouth University,10000824,England,South West,All,70,0,0,70,2.1,7.1,68.6,87.9,90.7,115,1.8,0.4,115,9,6.3,73.4,82,84.7,70,2.9,0,70,4.5,4.5,76.1,89.6,91,50,20800,21200,24100,70,21200,24500,28900,50,19300,24800,27700,50,20800,21400,24100,80,19900,24500,29800,50,19300,25000,27700,35,14.7,55,17,35,17.1,30,280,45,300,35,260,0.3,0.2,0.4,2,1,2,48.6,47.7,52.2,41.4,38.7,46.3
201718,Tax year,National,K03000001,Great Britain,Female,Allied health,Higher Education Institution,BPP University Limited,10031982,England,London,All,c,c,c,c,c,c,c,c,c,20,37.5,0,c,c,c,c,c,c,c,c,c,c,c,c,c,c,c,c,c,c,c,c,c,c,c,c,c,c,c,c,c,c,c,c,c,c,c,c,c,c,c,c,c,c,c,c,c,c,c,c,c,c,c,c,c,c,c,c,c,c,c,c,c,c,c
201718,Tax year,National,K03000001,Great Britain,Female,Allied health,Higher Education Institution,Brunel University London,10000961,England,London,All,85,2.4,1.2,80,3.8,2.5,90,93.8,93.8,105,1.9,2.9,100,6.1,3.1,81.6,88.8,90.8,110,4.5,0,105,7.6,4.8,78.1,85.7,87.6,75,21200,23400,24800,80,21500,26300,29200,80,19700,28100,33900,75,21200,23400,24800,80,21500,26300,29600,80,19500,28000,33900,50,10.4,45,9.5,50,6.4,45,300,40,300,40,290,0.2,0.2,0.2,1,1,1,60,42.9,44.8,55,36.7,38.1
201718,Tax year,National,K03000001,Great Britain,Female,Allied health,Higher Education Institution,Canterbury Christ Church University,10001143,England,South East,All,90,0,0,90,4.7,3.5,84.9,90.7,91.9,95,2.1,0,95,3.3,6.5,87,89.1,90.2,95,6.5,1.1,90,5.8,5.8,77.9,88.4,88.4,75,20800,23200,25900,80,16600,23500,26300,70,14600,24100,27400,75,20800,23200,25900,80,17800,23700,26600,70,16400,24100,27400,30,0,25,13,30,24.1,15,220,20,200,20,200,0.7,0.8,0.7,2,3,2,30.2,25,33.7,17.4,19.6,22.1
201718,Tax year,National,K03000001,Great Britain,Female,Allied health,Higher Education Institution,Cardiff Metropolitan University,10007854,Wales,Wales,All,105,1,1,105,1,4.9,78.4,92.2,94.1,115,0.9,0,115,3.5,5.3,77,87.6,91.2,100,7,0,95,7.5,4.3,71,86,88.2,80,15700,20400,21500,85,17500,22300,25200,60,17500,24800,26700,80,16400,20400,21500,90,17500,22300,25200,65,17500,24800,26600,55,3.6,75,6.8,65,4.8,NA,NA,NA,NA,NA,NA,NA,NA,NA,NA,NA,NA,53.9,65.5,67.7,0,0,0
201718,Tax year,National,K03000001,Great Britain,Female,Allied health,Higher Education Institution,Cardiff University,10007814,Wales,Wales,All,145,0,0,145,2.1,2.1,93.8,95.2,95.9,170,1.8,0.6,165,1.2,3.7,85.2,93.2,95.1,170,7.7,0,160,1.9,3.8,78.2,94.2,94.2,135,20800,21500,23700,135,23400,26100,33300,120,24500,27400,38300,135,20800,21500,23700,135,23400,26300,33600,125,24500,27400,38300,115,5.3,95,5.4,115,7.1,NA,NA,NA,NA,NA,NA,NA,NA,NA,NA,NA,NA,78.6,57.4,71.8,0,0,0
201718,Tax year,National,K03000001,Great Britain,Female,Allied health,Higher Education Institution,Coventry University,10001726,England,West Midlands,All,325,0.9,0.3,320,1.3,3.1,84.9,91.5,95.6,280,0,1.1,280,4.3,4.3,79.8,88.4,91.3,285,1.8,0.4,280,8,2.5,79.1,87.7,89.5,270,20100,21200,22600,220,20700,24800,27700,215,21900,25900,28500,270,20100,21200,22600,220,20700,24800,27700,220,21900,25900,28500,220,12,165,9.1,170,9.4,170,260,145,260,130,240,0.4,0.4,0.5,2,2,2,68.2,59.6,61.5,52.8,51.6,46.8
201718,Tax year,National,K03000001,Great Britain,Female,Allied health,Higher Education Institution,De Montfort University,10001883,England,East Midlands,All,90,1.1,0,90,2.3,9.2,54.6,81.6,88.5,105,0,1,105,4.9,5.4,74,82.4,89.7,255,5.1,1.4,240,10.7,4.4,72.7,81.7,84.9,50,15000,19700,20800,75,17900,22300,26600,175,18600,24500,31800,50,15000,19700,20800,75,17500,22300,26300,175,18600,24500,31800,75,8.3,70,10.9,110,15.9,70,240,65,240,90,220,0.5,0.5,0.6,2,2,2,82.8,67.2,45,80.5,62.7,37.6
201718,Tax year,National,K03000001,Great Britain,Female,Allied health,Higher Education Institution,Edge Hill University,10007823,England,North West,All,55,0,0,55,3.9,5.9,54.9,84.3,90.2,80,1.3,0,80,10.4,5.2,72.7,81.8,84.4,40,0,0,40,5.1,2.6,71.8,89.7,92.3,30,9100,15300,25600,55,11200,17000,23800,25,12800,18200,25900,30,11800,15000,19500,55,11300,16800,23400,30,12800,18200,25900,20,16.7,15,14.3,10,22.2,10,300,10,150,5,95,0.2,0.9,1,1,3,3,35.3,18.2,23.1,15.7,10.4,10.3
201718,Tax year,National,K03000001,Great Britain,Female,Allied health,Higher Education Institution,Edinburgh Napier University,10007772,Scotland,Scotland,All,c,c,c,c,c,c,c,c,c,15,8.3,0,15,18.2,27.3,36.4,36.4,54.5,35,11.4,0,35,19.4,0,64.5,71,80.6,c,c,c,c,c,c,c,c,20,9100,15700,23700,c,c,c,c,c,c,c,c,20,8900,15300,24500,c,c,NA,0,NA,0,c,c,NA,NA,NA,NA,c,NA,NA,c,NA,NA,c,0,0,c,0,0
201718,Tax year,National,K03000001,Great Britain,Female,Allied health,Higher Education Institution,Glasgow Caledonian University,10007762,Scotland,Scotland,All,180,0,0.6,180,3.4,3.4,85.8,91.5,93.2,180,1.7,0,175,2.9,8,82.3,87.4,89.1,200,7.1,1,185,6.6,1.6,83,91.2,91.8,145,20100,21900,24100,135,22300,24500,33200,140,23000,25900,31400,150,20100,21900,24500,145,22300,24500,33200,150,22900,25900,31500,NA,0,NA,0,NA,0,NA,NA,NA,NA,NA,NA,NA,NA,NA,NA,NA,NA,0,0,0,0,0,0
201718,Tax year,National,K03000001,Great Britain,Female,Allied health,Higher Education Institution,Glynd?r University,10007833,Wales,Wales,All,60,1.7,0,60,3.4,5.1,69.5,86.4,91.5,25,4.3,0,25,18.2,0,77.3,77.3,81.8,20,5.3,0,20,0,5.6,88.9,94.4,94.4,40,15500,20400,21200,20,12600,18200,22300,c,c,c,c,40,12000,19700,21200,20,12600,18200,22300,15,6600,20900,25300,15,18.2,5,0,5,0,NA,NA,NA,NA,NA,NA,NA,NA,NA,NA,NA,NA,18.6,9.1,11.1,0,0,0
201718,Tax year,National,K03000001,Great Britain,Female,Allied health,Higher Education Institution,Goldsmiths College,10002718,England,London,All,15,0,0,15,8,16,60,72,76,c,c,c,c,c,c,c,c,c,c,c,c,c,c,c,c,c,c,c,c,c,c,c,c,c,c,c,c,c,c,c,c,c,c,c,c,c,c,c,c,c,c,10,22.2,c,c,c,c,10,260,c,c,c,c,0.4,c,c,2,c,c,72,c,c,48,c,c
201718,Tax year,National,K03000001,Great Britain,Female,Allied health,Higher Education Institution,"Imperial College of Science, Technology and Medicine",10003270,England,London,All,20,0,0,20,5.9,11.8,47.1,58.8,82.4,c,c,c,c,c,c,c,c,c,c,c,c,c,c,c,c,c,c,c,c,c,c,c,c,c,c,c,c,c,c,c,c,c,c,c,c,c,c,c,c,c,c,20,23.5,c,c,c,c,15,360,c,c,c,c,0,c,c,1,c,c,100,c,c,88.2,c,c
201718,Tax year,National,K03000001,Great Britain,Female,Allied health,Higher Education Institution,King's College London,10003645,England,London,All,70,1.5,1.5,65,3.1,3.1,60.9,79.7,93.8,90,0,0,90,5.7,1.1,70.1,89.7,93.1,85,3.6,0,80,1.2,2.5,76.2,91.2,96.2,40,20400,23000,25200,60,19700,26300,30700,60,23400,28800,34900,40,20400,23000,25200,60,20400,26300,31000,65,23400,28800,34700,35,6.5,60,3.5,60,8.9,30,350,55,340,55,320,0.1,0.1,0.1,1,1,1,48.4,65.5,70,40.6,59.8,63.8
201718,Tax year,National,K03000001,Great Britain,Female,Allied health,Higher Education Institution,Kingston University,10003678,England,London,All,55,0,0,55,7.7,17.3,44.2,73.1,75,35,0,0,35,11.4,17.1,51.4,62.9,71.4,25,4.8,0,20,10,5,67.5,77.5,85,25,16100,20100,24800,20,19000,21000,28800,15,20800,21200,26300,25,16100,20100,24800,20,18800,20800,28800,15,20400,21200,26300,45,7.3,20,14.7,15,0,40,200,20,220,15,220,0.8,0.7,0.6,3,2,2,78.8,48.6,72.5,69.2,45.7,57.5
201718,Tax year,National,K03000001,Great Britain,Female,Allied health,Higher Education Institution,Leeds Beckett University,10003861,England,Yorkshire and the Humber,All,150,2,0.7,145,2.8,5.5,70.3,87.6,91.7,170,0,0,170,6.5,4.7,75.3,85.9,88.8,205,1,1,200,7.1,4.1,82.7,88.3,88.8,95,16400,20400,21900,120,19000,23400,25600,140,16100,23400,27400,100,16400,20400,21900,125,18200,23000,25600,150,14600,23200,27400,75,16.2,115,8.8,100,4,70,280,100,260,90,280,0.3,0.4,0.3,2,2,2,51,66.5,50.8,46.2,58.8,44.7
201718,Tax year,National,K03000001,Great Britain,Female,Allied health,Higher Education Institution,Leeds Trinity University,10003863,England,Yorkshire and the Humber,All,c,c,c,c,c,c,c,c,c,15,0,0,15,0,0,91.9,91.9,100,c,c,c,c,c,c,c,c,c,c,c,c,c,15,20100,22600,24500,c,c,c,c,c,c,c,c,15,20100,23400,26300,c,c,c,c,c,c,10,11.5,c,c,c,c,10,260,c,c,c,0.4,c,c,2,c,c,70.3,c,c,62.2,c
201718,Tax year,National,K03000001,Great Britain,Female,Allied health,Higher Education Institution,Liverpool Hope University,10003956,England,North West,All,15,0,0,15,9.1,9.1,45.5,63.6,81.8,20,0,0,20,0,5.3,76.3,89.5,94.7,20,0,0,20,7.7,5.1,74.4,87.2,87.2,c,c,c,c,15,12400,17500,21200,15,13100,15300,20800,c,c,c,c,15,12400,17500,21200,15,13100,15300,20800,10,30.8,20,15.2,15,0,5,178,10,180,10,180,0.9,0.8,0.8,3,3,3,59.1,86.8,56.4,36.4,34.2,33.3
201718,Tax year,National,K03000001,Great Britain,Female,Allied health,Higher Education Institution,Liverpool John Moores University,10003957,England,North West,All,75,0,0,75,2.7,4.1,49.3,80.8,93.2,75,0,0,75,4.2,4.2,67.6,84.5,91.5,85,1.2,0,85,13.3,3.6,62.7,80.7,83.1,40,16600,19900,21500,45,19600,22800,27600,50,18600,25900,30700,40,16600,19900,21500,45,19300,22300,27400,50,18600,25900,30700,60,6.9,55,15.4,55,9.8,40,260,40,280,40,230,0.4,0.3,0.6,2,2,2,79.5,73.2,61.4,54.8,54.9,43.4
201718,Tax year,National,K03000001,Great Britain,Female,Allied health,Higher Education Institution,London Metropolitan University,10004048,England,London,All,60,3.5,0,55,9.2,4.6,70.6,80.7,86.2,185,0.3,1.7,180,9.9,10.2,52,71.8,79.9,80,4.6,3.3,75,13.5,10.6,60.3,65.2,75.9,40,12000,21500,24100,90,17500,21500,26300,45,16400,24500,28100,40,10100,21200,23800,90,17500,21500,26300,45,15700,23000,28100,20,6.1,80,14.8,30,16.7,15,180,45,220,20,180,0.8,0.7,0.8,3,2,3,30.3,43.8,42.6,20.2,25.4,23.4
201718,Tax year,National,K03000001,Great Britain,Female,Allied health,Higher Education Institution,London South Bank University,10004078,England,London,All,55,0,1.9,55,5.8,7.7,76.9,86.5,86.5,55,7.3,0,55,5.9,2,84.3,92.2,92.2,35,14.3,2.9,30,10.3,0,82.8,89.7,89.7,35,21500,24800,29200,40,20300,25200,30300,25,16400,27900,33600,40,21100,24600,28700,40,17500,24800,30300,25,16400,27900,33600,5,33.3,5,33.3,5,50,5,300,5,280,5,235,0.2,0.3,0.6,1,2,2,5.8,5.9,6.9,3.8,2,3.4
201718,Tax year,National,K03000001,Great Britain,Female,Allied health,Higher Education Institution,Middlesex University,10004351,England,London,All,125,1.6,1.6,120,6.2,6.2,65.4,77.9,87.5,100,1,0,100,15.5,7.7,61.3,72.2,76.8,95,6.5,0,90,12.8,13.4,56.4,70.3,73.8,75,16100,20400,25900,55,15300,24500,31800,45,13500,21500,33900,80,16100,20400,24800,60,14600,24300,31800,50,13500,21500,32600,70,13,40,9.6,25,8.2,40,220,20,220,15,210,0.7,0.7,0.7,2,2,2,54.6,37.6,28.5,30,20.6,15.1
201718,Tax year,National,K03000001,Great Britain,Female,Allied health,Higher Education Institution,Newman University,10007832,England,West Midlands,All,20,0,0,20,5.9,11.8,53.9,79.4,82.3,25,0,0,25,2.2,4.4,82.5,90.5,93.4,20,6.1,0,20,9.8,2.2,75,88,88,c,c,c,c,20,13900,16400,21200,c,c,c,c,c,c,c,c,20,13900,17200,21400,c,c,c,c,10,5.9,15,11.4,10,0,10,200,10,240,5,160,0.8,0.5,0.9,3,2,3,50,51.1,41.2,30.3,27,27.1
201718,Tax year,National,K03000001,Great Britain,Female,Allied health,Higher Education Institution,Oxford Brookes University,10004930,England,South East,All,105,1,1,100,5,4,78,86,91,125,2.4,0,125,0.8,5.8,83.8,91.7,93.3,140,5.1,0.7,130,5.5,3.9,78.6,88.7,90.6,70,19300,21700,24500,90,21200,25200,28100,85,21500,27000,32500,80,19200,21900,25200,100,21500,25200,29600,100,17900,25900,31000,50,6.5,65,9.8,70,6.7,40,280,55,300,65,300,0.3,0.2,0.2,2,1,1,46,50.9,52.4,40,43,49.5
201718,Tax year,National,K03000001,Great Britain,Female,Allied health,Higher Education Institution,"Queen Margaret University, Edinburgh",10005337,Scotland,Scotland,All,120,0,0.9,115,0.9,5.2,80,89.6,93.9,110,1.9,0,105,7.6,4.8,77.1,85.7,87.6,140,7.2,1.4,130,7.9,4.8,76.2,84.9,87.3,85,16700,21500,22600,75,15700,22300,24100,90,19300,24800,26600,85,17500,21500,22600,80,16400,22300,24100,95,18600,24500,26300,NA,0,NA,0,NA,0,NA,NA,NA,NA,NA,NA,NA,NA,NA,NA,NA,NA,0,0,0,0,0,0
201718,Tax year,National,K03000001,Great Britain,Female,Allied health,Higher Education Institution,Queen Mary University of London,10007775,England,London,All,15,0,0,15,0,0,0,53.3,100,25,0,0,25,0,0,81,98.4,100,45,0,2.3,45,2.4,4.8,77.6,92.8,92.8,c,c,c,c,20,34400,36900,40300,35,41600,44900,50400,c,c,c,c,20,34400,36900,40300,35,41600,44900,50400,15,14.3,20,13,40,5.2,15,360,20,360,35,360,0,0,0,1,1,1,93.3,85.7,92,86.7,85.7,82.4
201718,Tax year,National,K03000001,Great Britain,Female,Allied health,Higher Education Institution,Roehampton University,10007776,England,London,All,20,0,0,20,0,5.6,55.6,77.8,94.4,20,0,0,20,10.5,5.3,57.9,68.4,84.2,25,4.5,0,25,14.3,9.5,66.7,73.8,76.2,c,c,c,c,c,c,c,c,15,12200,21400,29900,c,c,c,c,c,c,c,c,15,12200,21400,29900,10,25,10,11.1,10,33.3,10,185,10,205,5,160,0.8,0.8,0.9,3,3,3,44.4,47.4,35.7,33.3,42.1,21.4
201718,Tax year,National,K03000001,Great Britain,Female,Allied health,Higher Education Institution,Sheffield Hallam University,10005790,England,Yorkshire and the Humber,All,160,0,0,160,1.3,3.9,81.3,91.9,94.8,210,0.5,0,210,3.2,5.6,79.8,89.6,91.2,225,1.4,0.3,220,2.5,3.2,79.8,93,94.4,130,17500,21500,23000,165,17200,23400,26300,170,21500,25600,28800,130,17500,21500,23000,165,17500,23400,26300,175,21500,25600,29200,110,8.1,155,12.3,140,6.6,95,280,125,260,125,260,0.3,0.4,0.4,2,2,2,68.7,74.3,63.2,58,59.1,55.6
201718,Tax year,National,K03000001,Great Britain,Female,Allied health,Higher Education Institution,Southampton Solent University,10006022,England,South East,All,c,c,c,c,c,c,c,c,c,c,c,c,c,c,c,c,c,c,15,0,0,15,9.1,18.2,63.6,63.6,72.7,c,c,c,c,c,c,c,c,c,c,c,c,c,c,c,c,c,c,c,c,c,c,c,c,c,c,c,c,10,20,c,c,c,c,10,210,c,c,0.7,c,c,2,c,c,90.9,c,c,72.7
201718,Tax year,National,K03000001,Great Britain,Female,Allied health,Higher Education Institution,St George's Hospital Medical School,10007782,England,London,All,140,0,0,140,1.4,2.9,34.8,76.1,95.7,165,0.6,1.2,160,8.2,5.7,50.6,72.8,86.1,110,0,0,110,9.3,4.6,66.7,75,86.1,50,19300,22800,25900,80,20600,27000,33100,70,25900,29900,35000,50,19300,22800,25900,80,21900,27600,33100,70,25900,29700,35000,120,6.8,130,14.7,90,4.7,115,320,125,300,80,300,0.1,0.2,0.2,1,1,1,84.8,81.6,79.6,81.2,77.8,74.1
201718,Tax year,National,K03000001,Great Britain,Female,Allied health,Higher Education Institution,"St Mary's University, Twickenham",10007843,England,London,All,35,0,0,35,6.1,10.6,46,73,83.3,30,0,0,30,7.6,0,65.7,80.9,92.4,30,7,0,30,3.7,1.9,79,86.9,94.4,15,2900,17500,21900,15,10600,15300,22300,20,20100,27000,31800,15,3600,17500,21900,15,12000,18600,29200,25,19000,24500,31800,30,10.6,25,12.7,25,17.8,20,240,20,240,15,210,0.5,0.5,0.7,2,2,2,86.3,90,81.3,49.8,72.4,51.4
201718,Tax year,National,K03000001,Great Britain,Female,Allied health,Higher Education Institution,Staffordshire University,10006299,England,West Midlands,All,45,0,0,45,4.7,2.3,62.8,93,93,20,0,0,20,11.1,5.6,55.6,83.3,83.3,c,c,c,c,c,c,c,c,c,25,14600,19300,28500,c,c,c,c,c,c,c,c,25,15000,19700,28500,c,c,c,c,c,c,c,c,20,12.5,0,0,c,c,10,200,0,172.5,c,c,0.8,0.9,c,3,3,c,37.2,0,c,20.9,0,c
201718,Tax year,National,K03000001,Great Britain,Female,Allied health,Higher Education Institution,Swansea Metropolitan University,10007846,Wales,Wales,All,c,c,c,c,c,c,c,c,c,c,c,c,c,c,c,c,c,c,15,3.3,0,15,6.9,3.4,75.9,86.2,89.7,c,c,c,c,c,c,c,c,15,16800,19700,24100,c,c,c,c,c,c,c,c,15,16800,19700,24100,c,c,c,c,10,23.5,c,c,c,c,NA,NA,c,c,NA,c,c,NA,c,c,58.6,c,c,0
201718,Tax year,National,K03000001,Great Britain,Female,Allied health,Higher Education Institution,Swansea University,10007855,Wales,Wales,All,25,0,0,25,4.2,0,41.7,83.3,95.8,40,0,0,40,2.6,0,47.4,86.8,97.4,20,0,0,20,5.9,5.9,52.9,88.2,88.2,c,c,c,c,15,16800,18800,23800,c,c,c,c,c,c,c,c,15,13500,18800,22700,c,c,c,c,15,6.7,25,12.5,15,0,NA,NA,NA,NA,NA,NA,NA,NA,NA,NA,NA,NA,62.5,63.2,70.6,0,0,0
201718,Tax year,National,K03000001,Great Britain,Female,Allied health,Higher Education Institution,Teesside University,10007161,England,North East,All,55,0,0,55,2,0,86.3,96.1,98,135,1.5,0,130,4.7,0.8,63.6,93,94.6,60,1.7,0,60,3.4,3.4,79.3,93.1,93.1,45,20800,21500,22600,80,20400,25000,32900,45,16800,26100,29600,45,20800,21500,22600,80,20400,25000,32900,50,16800,25600,29600,35,12.1,25,14.3,30,21.4,25,280,15,240,20,240,0.3,0.5,0.5,2,2,2,64.7,16.3,48.3,49,10.1,34.5
201718,Tax year,National,K03000001,Great Britain,Female,Allied health,Higher Education Institution,The City University,10001478,England,London,All,130,0,0,130,2.4,2.4,90.6,94.5,95.3,130,0.8,1.6,130,3.2,7.1,75.4,88.9,89.7,115,2.7,1.8,110,13,2.8,75,83.3,84.3,115,18600,22600,26300,85,23700,29200,39800,65,17200,30300,39400,115,18600,23000,26600,90,23700,29400,39500,80,17900,31400,40800,90,4.6,85,10.8,80,5.1,85,300,80,320,75,320,0.2,0.1,0.1,1,1,1,68.5,65.9,73.1,65.4,60.3,69.4
201718,Tax year,National,K03000001,Great Britain,Female,Allied health,Higher Education Institution,The College of St. Mark and St. John Foundation,10004206,England,South West,All,c,c,c,c,c,c,c,c,c,c,c,c,c,c,c,c,c,c,40,11.1,0,35,0,0,96.9,100,100,c,c,c,c,c,c,c,c,30,15700,24300,26300,c,c,c,c,c,c,c,c,30,17500,24300,26300,c,c,c,c,25,19,c,c,c,c,20,300,c,c,0.2,c,c,1,c,c,65.6,c,c,59.4
201718,Tax year,National,K03000001,Great Britain,Female,Allied health,Higher Education Institution,The Manchester Metropolitan University,10004180,England,North West,All,170,1.2,0,170,2.4,6,76,88,91.6,170,0.6,0,170,4.5,7.8,70.7,84.7,87.7,155,3.6,0.3,150,8.1,3.7,78,85.8,88.1,125,20100,21200,24500,115,18500,22600,25900,110,17800,24800,29400,130,20100,21500,24500,115,18200,22300,25900,110,17400,24800,29200,95,8.6,95,9.6,80,5.3,75,300,70,240,60,280,0.2,0.5,0.3,1,2,2,55.7,56,51.5,42.2,40.4,39
201718,Tax year,National,K03000001,Great Britain,Female,Allied health,Higher Education Institution,The Nottingham Trent University,10004797,England,East Midlands,All,c,c,c,c,c,c,c,c,c,c,c,c,c,c,c,c,c,c,15,0,0,15,0,0,100,100,100,c,c,c,c,c,c,c,c,15,23000,26500,29900,c,c,c,c,c,c,c,c,15,23000,26500,29900,c,c,c,c,10,25,c,c,c,c,10,200,c,c,0.7,c,c,2,c,c,53.3,c,c,46.7
201718,Tax year,National,K03000001,Great Britain,Female,Allied health,Higher Education Institution,The Open University,10007773,England,South East,All,50,2.2,1.5,45,12.9,3,50,76.5,84.1,c,c,c,c,c,c,c,c,c,c,c,c,c,c,c,c,c,c,25,16800,20800,28500,c,c,c,c,c,c,c,c,25,16700,20800,28800,c,c,c,c,c,c,c,c,10,14.3,c,c,c,c,5,320,c,c,c,c,0.1,c,c,1,c,c,15.9,c,c,10.6,c,c
201718,Tax year,National,K03000001,Great Britain,Female,Allied health,Higher Education Institution,The Robert Gordon University,10005500,Scotland,Scotland,All,65,0,0,65,1.6,1.6,90.5,96.8,96.8,70,0,2.9,70,4.4,8.8,77.9,86.8,86.8,75,7,1.4,65,12.3,1.5,73.8,84.6,86.2,55,19300,21500,23000,55,22500,23700,26400,50,23700,26300,28800,60,19300,21500,23000,55,22300,23700,26600,50,23600,26300,28800,NA,0,NA,0,NA,0,NA,NA,NA,NA,NA,NA,NA,NA,NA,NA,NA,NA,0,0,0,0,0,0
201718,Tax year,National,K03000001,Great Britain,Female,Allied health,Higher Education Institution,The University of Aberdeen,10007783,Scotland,Scotland,All,c,c,c,c,c,c,c,c,c,c,c,c,c,c,c,c,c,c,c,c,c,c,c,c,c,c,c,c,c,c,c,c,c,c,c,c,c,c,c,c,c,c,c,c,c,c,c,c,c,c,c,c,c,c,c,c,c,c,c,c,c,c,c,c,c,c,c,c,c,c,c,c,c,c,c
201718,Tax year,National,K03000001,Great Britain,Female,Allied health,Higher Education Institution,The University of Birmingham,10006840,England,West Midlands,All,140,0,0.7,140,2.2,4.7,46.1,71.1,93.1,140,0,1.5,135,3.9,3.3,58.6,80.9,92.8,130,3.1,2.3,125,4.9,3.7,64.8,86.6,91.5,65,20800,21900,23000,80,25200,28100,34300,80,23000,31800,44500,65,20800,21900,23400,80,25200,28700,34300,80,23000,31800,44500,130,6,130,5.1,115,3.5,120,340,120,360,105,340,0.1,0,0,1,1,1,91,95.2,91.9,84.1,87,83.7
201718,Tax year,National,K03000001,Great Britain,Female,Allied health,Higher Education Institution,The University of Bolton,10006841,England,North West,All,20,0,0,20,6.1,9.1,51.5,84.8,84.8,45,0,0,45,7.3,2.4,65.9,86.6,90.2,45,4.9,0,40,2.6,5.1,76.9,89.7,92.3,c,c,c,c,30,21200,28700,37600,30,20800,28500,34700,c,c,c,c,30,21200,28700,37600,30,20800,28500,34700,5,11.1,5,37.5,5,33.3,5,220,5,160,5,243.3333333,0.7,0.9,0.5,2,3,2,27.3,9.8,7.7,21.2,8.5,2.6
201718,Tax year,National,K03000001,Great Britain,Female,Allied health,Higher Education Institution,The University of Bradford,10007785,England,Yorkshire and the Humber,All,195,0.8,0,190,4.3,5.4,67.8,82.1,90.2,180,0.3,0,180,5.3,8.6,60.6,81.3,86.1,160,3.5,1,150,6,6,70.1,82.6,88,130,14600,20100,25200,105,16800,26600,38000,95,18200,23700,32500,130,14600,20100,25200,105,16100,26300,38000,100,17500,23400,32500,130,8.6,115,11.9,85,10.8,115,300,95,300,75,300,0.2,0.2,0.2,1,1,1,67.2,64.3,55.5,58.4,52.7,47.9
201718,Tax year,National,K03000001,Great Britain,Female,Allied health,Higher Education Institution,The University of Brighton,10000886,England,South East,All,75,0,0,75,2.8,1.4,87.6,94.5,95.9,85,0,0,85,4.7,5.9,81.2,88.2,89.4,85,3.7,0,80,6.3,5.1,82.3,88.6,88.6,60,20400,22300,24800,65,20400,25600,28500,65,17900,26300,28500,65,20400,22300,24100,70,20400,25900,29200,65,17900,26300,29200,35,19.2,45,9.8,40,15.4,30,300,40,260,35,280,0.2,0.4,0.3,1,2,2,43.1,48.2,49.4,39.9,43.5,40.5
201718,Tax year,National,K03000001,Great Britain,Female,Allied health,Higher Education Institution,The University of Bristol,10007786,England,South West,All,35,0,0,35,0,0,0,38.2,100,15,0,0,15,0,0,18.2,100,100,c,c,c,c,c,c,c,c,c,c,c,c,c,c,c,c,c,c,c,c,c,c,c,c,c,c,c,c,c,c,c,c,c,35,2.9,15,9.1,c,c,30,360,10,360,c,c,0,0,c,1,1,c,100,100,c,82.4,90.9,c
201718,Tax year,National,K03000001,Great Britain,Female,Allied health,Higher Education Institution,The University of Cambridge,10007788,England,East of England,All,60,0,1.2,60,7.2,6,41.6,65.7,86.7,70,0.5,0,65,6.8,3.1,44,68.1,90.1,65,1.6,0.5,65,11.2,4.5,57,78.8,84.4,25,19000,24500,29600,30,24100,30500,42300,35,29200,35800,49300,25,19000,24500,29600,30,24100,30300,42300,35,29200,35800,49300,60,3,65,5.2,60,7.4,55,360,60,360,60,360,0,0,0,1,1,1,98.8,100,98.3,91,88.5,91.6
201718,Tax year,National,K03000001,Great Britain,Female,Allied health,Higher Education Institution,The University of Central Lancashire,10007141,England,North West,All,60,0,0,60,1.8,7,63.2,80.7,91.2,85,1.2,1.2,80,5,6.7,69.9,83.3,88.3,125,2.5,1.6,120,6.9,7.7,71.5,84,85.4,35,16100,19700,21500,55,15700,20100,24500,75,11700,18600,25900,35,14200,19300,21500,55,15700,20100,24500,80,10600,17200,24800,30,7.7,60,8.2,60,8.5,15,260,35,280,40,260,0.4,0.3,0.4,2,2,2,45.6,71.1,50.5,26.3,43.1,30.9
201718,Tax year,National,K03000001,Great Britain,Female,Allied health,Higher Education Institution,The University of Chichester,10007137,England,South East,All,c,c,c,c,c,c,c,c,c,15,9.1,0,c,c,c,c,c,c,c,c,c,c,c,c,c,c,c,c,c,c,c,c,c,c,c,c,c,c,c,c,c,c,c,c,c,c,c,c,c,c,c,c,c,c,c,c,c,c,c,c,c,c,c,c,c,c,c,c,c,c,c,c,c,c,c
201718,Tax year,National,K03000001,Great Britain,Female,Allied health,Higher Education Institution,The University of Dundee,10007852,Scotland,Scotland,All,20,0,0,20,5.3,0,36.8,52.6,94.7,20,0,0,20,0,0,68.4,78.9,100,25,0,4.5,25,4.8,14.3,47.6,81,81,c,c,c,c,15,21500,25600,35800,c,c,c,c,c,c,c,c,15,21500,25600,35800,c,c,c,c,NA,0,NA,0,NA,0,NA,NA,NA,NA,NA,NA,NA,NA,NA,NA,NA,NA,0,0,0,0,0,0
201718,Tax year,National,K03000001,Great Britain,Female,Allied health,Higher Education Institution,The University of East Anglia,10007789,England,East of England,All,75,0,0,75,1.4,2.7,89,94.5,95.9,75,0,0,75,2.8,4.2,77.5,93,93,75,2.7,1.4,75,4.2,4.2,78.9,91.5,91.5,65,20800,21200,22600,55,21900,24800,27000,55,22300,26600,29200,65,20800,21200,22600,55,21900,24800,27000,55,22300,26600,29200,55,11.8,50,14.3,50,8.7,45,320,45,320,40,280,0.1,0.1,0.3,1,1,2,69.9,69,64.8,61.6,59.2,54.9
201718,Tax year,National,K03000001,Great Britain,Female,Allied health,Higher Education Institution,The University of East London,10007144,England,London,All,195,0,0,195,4.4,10.1,61.3,79.6,85.5,215,2.5,0.9,205,5.8,9.3,60.1,79,84.9,175,3.5,0,165,8,9.4,71.6,80.7,82.6,110,13500,20800,25900,115,15000,22600,28100,100,13900,22300,31000,115,12800,20400,25900,115,14600,22600,28500,110,13100,21500,29900,50,17.3,70,16.1,35,12.8,35,160,55,220,20,220,0.9,0.7,0.6,3,2,2,25.5,32.8,19.1,17.4,25.3,10.4
201718,Tax year,National,K03000001,Great Britain,Female,Allied health,Higher Education Institution,The University of Edinburgh,10007790,Scotland,Scotland,All,c,c,c,c,c,c,c,c,c,c,c,c,c,c,c,c,c,c,c,c,c,c,c,c,c,c,c,c,c,c,c,c,c,c,c,c,c,c,c,c,c,c,c,c,c,c,c,c,c,c,c,c,c,c,c,c,c,c,c,c,c,c,c,c,c,c,c,c,c,c,c,c,c,c,c
201718,Tax year,National,K03000001,Great Britain,Female,Allied health,Higher Education Institution,The University of Essex,10007791,England,East of England,All,80,2.6,0,75,1.4,8.1,55.4,81.1,90.5,115,0,0,115,4.4,7,72.8,85.1,88.6,100,7.3,1,90,19.3,0.6,68.8,79,80.1,40,20400,22400,25200,80,17200,23200,29300,60,18200,25600,31400,40,20400,22400,25200,85,16800,22600,29600,60,17900,25600,31400,45,15.6,45,15.6,45,19.8,45,250,40,240,40,200,0.5,0.5,0.7,2,2,2,60.8,39.5,48.9,56.8,34.2,41.5
201718,Tax year,National,K03000001,Great Britain,Female,Allied health,Higher Education Institution,The University of Exeter,10007792,England,South West,All,25,0,0,25,0,0,25,75,100,c,c,c,c,c,c,c,c,c,c,c,c,c,c,c,c,c,c,c,c,c,c,c,c,c,c,c,c,c,c,c,c,c,c,c,c,c,c,c,c,c,c,25,9.1,c,c,c,c,20,340,c,c,c,c,0.1,c,c,1,c,c,91.7,c,c,75,c,c
201718,Tax year,National,K03000001,Great Britain,Female,Allied health,Higher Education Institution,The University of Glasgow,10007794,Scotland,Scotland,All,c,c,c,c,c,c,c,c,c,c,c,c,c,c,c,c,c,c,c,c,c,c,c,c,c,c,c,c,c,c,c,c,c,c,c,c,c,c,c,c,c,c,c,c,c,c,c,c,c,c,c,c,c,c,c,c,c,c,c,c,c,c,c,c,c,c,c,c,c,c,c,c,c,c,c
201718,Tax year,National,K03000001,Great Britain,Female,Allied health,Higher Education Institution,The University of Greenwich,10007146,England,London,All,150,3.4,0,145,3.7,4.6,73.3,89,91.7,160,0.6,1.9,155,7.4,4.1,69.4,87.1,88.5,125,4.9,1.6,115,8.7,4.8,75.1,85.6,86.5,90,15700,27700,38300,90,18600,28800,36900,70,12400,22300,33900,105,15700,26700,38000,100,18600,27400,35000,85,12400,22300,33200,40,7.1,30,9.5,15,32.1,30,260,15,240,15,130,0.4,0.5,0.9,2,2,3,25,17.3,12.2,18.4,9.2,9.2
201718,Tax year,National,K03000001,Great Britain,Female,Allied health,Higher Education Institution,The University of Huddersfield,10007148,England,Yorkshire and the Humber,All,120,0,0,120,1.7,6.3,74,88.4,92,145,2.1,0,145,5.3,7.8,65.4,84.7,86.9,150,2.2,1.4,145,7.7,4.2,73.5,88.1,88.1,80,18200,21500,24800,90,16400,22300,25900,95,15300,21500,28500,85,17500,21500,24800,95,16900,22300,26300,105,14200,19700,28100,65,10.5,65,13.2,40,15.5,45,260,45,240,30,200,0.4,0.5,0.7,2,2,2,54.6,42.6,25.7,35.9,31.7,18.7
201718,Tax year,National,K03000001,Great Britain,Female,Allied health,Higher Education Institution,The University of Hull,10007149,England,Yorkshire and the Humber,All,c,c,c,c,c,c,c,c,c,25,0,0,25,4.2,12.5,66.7,83.3,83.3,30,3.4,0,30,12,3.5,71.1,81,84.5,c,c,c,c,15,15000,20400,22100,20,11000,16800,22300,c,c,c,c,15,9500,17500,21900,25,11000,16800,22300,c,c,5,0,5,19,c,c,5,310,5,260,c,0.2,0.4,c,1,2,c,12.5,14.8,c,12.5,13.4
201718,Tax year,National,K03000001,Great Britain,Female,Allied health,Higher Education Institution,The University of Keele,10007767,England,West Midlands,All,35,0,0,35,0,0,87.5,96.9,100,40,0,0,40,5,5,72.5,87.5,90,40,8.1,2.7,35,0,6.1,81.8,93.9,93.9,30,21500,21900,22600,30,24500,25900,27000,30,21500,25900,28100,30,21800,22600,24000,30,24500,25900,27000,30,21500,26800,28100,30,6.9,35,5.7,25,4,25,320,25,300,25,300,0.1,0.2,0.2,1,1,1,90.6,87.5,75.8,78.1,60,63.6
201718,Tax year,National,K03000001,Great Britain,Female,Allied health,Higher Education Institution,The University of Kent,10007150,England,South East,All,c,c,c,c,c,c,c,c,c,50,0,0,50,0,2,73.5,89.8,98,40,0,0,40,0,2.6,76.9,92.3,97.4,c,c,c,c,40,21100,23400,27500,30,23400,25900,33900,c,c,c,c,40,21100,23400,27500,30,23400,25900,33900,c,c,40,23.7,35,21.2,c,c,35,300,35,240,c,0.2,0.5,c,1,2,c,77.6,84.6,c,69.4,82.1
201718,Tax year,National,K03000001,Great Britain,Female,Allied health,Higher Education Institution,The University of Lancaster,10007768,England,North West,All,30,0,0,30,0,10.7,53.6,82.1,89.3,20,0,0,20,0,5.8,42.4,71.2,94.2,30,0,0,30,0,7.7,53.8,92.3,92.3,15,17200,21500,23000,c,c,c,c,15,22300,27700,32100,15,15700,20800,23000,c,c,c,c,15,22300,27700,32100,30,3.7,20,11.8,25,4,25,320,20,320,25,300,0.1,0.1,0.2,1,1,1,96.4,98,96.2,85.7,92.2,88.5
201718,Tax year,National,K03000001,Great Britain,Female,Allied health,Higher Education Institution,The University of Leeds,10007795,England,Yorkshire and the Humber,All,15,4.5,0,c,c,c,c,c,c,20,0,2.5,20,5.1,2.6,76.9,92.3,92.3,20,0,0,20,3.1,3.1,81.2,87.5,93.8,c,c,c,c,15,26600,30300,33600,15,26600,29900,36100,c,c,c,c,15,26600,30300,33600,15,26600,29900,36100,c,c,15,0,15,4.2,c,c,15,320,15,300,c,0.1,0.2,c,1,1,c,74.4,75,c,59,65.6
201718,Tax year,National,K03000001,Great Britain,Female,Allied health,Higher Education Institution,The University of Leicester,10007796,England,East Midlands,All,20,0,0,20,0,0,5.6,38.9,100,c,c,c,c,c,c,c,c,c,c,c,c,c,c,c,c,c,c,c,c,c,c,c,c,c,c,c,c,c,c,c,c,c,c,c,c,c,c,c,c,c,c,20,11.8,c,c,c,c,20,360,c,c,c,c,0,c,c,1,c,c,94.4,c,c,88.9,c,c
201718,Tax year,National,K03000001,Great Britain,Female,Allied health,Higher Education Institution,The University of Lincoln,10007151,England,East Midlands,All,65,0,0,65,0,9.7,54.8,80.6,90.3,125,0,0,125,8.1,4.9,63.4,81.3,87,85,2.4,0,85,11.1,7.4,72.2,81.5,81.5,35,13900,17300,19000,75,13500,18600,22300,55,15300,21900,28100,35,13900,17300,19000,75,12400,17700,22300,60,15000,21500,28100,50,18,85,16.5,60,13.3,45,240,70,240,55,240,0.5,0.5,0.5,2,2,2,80.6,69.1,74.1,71,56.1,66.7
201718,Tax year,National,K03000001,Great Britain,Female,Allied health,Higher Education Institution,The University of Liverpool,10006842,England,North West,All,90,0,0,90,2.2,8.9,85.6,87.8,88.9,100,0,0,100,3,4,84,92,93,95,1.1,0,95,8.7,6.5,69.6,84.8,84.8,80,20400,21500,23000,85,22300,25200,26600,60,22400,26600,29600,80,20400,21500,23000,85,22300,25200,26600,65,20800,26600,29600,75,1.4,85,1.2,70,8.6,60,300,65,280,55,280,0.2,0.3,0.3,1,2,2,80,81,76.1,64.4,63,56.5
201718,Tax year,National,K03000001,Great Britain,Female,Allied health,Higher Education Institution,The University of Manchester,10007798,England,North West,All,75,0,0,75,7,2.8,85.9,90.1,90.1,75,0,0,75,5.5,5.5,78.1,89,89,75,4.2,0,70,5.8,1.4,73.9,89.9,92.8,65,17900,20800,24100,55,20100,25200,38300,50,19000,31000,39400,65,17900,20800,24100,60,20600,25400,40000,50,19700,31000,39400,65,8.2,60,3.5,60,10.3,55,340,50,320,55,340,0.1,0.1,0,1,1,1,85.9,78.1,84.1,76.1,65.8,73.9
201718,Tax year,National,K03000001,Great Britain,Female,Allied health,Higher Education Institution,The University of Northampton,10007138,England,East Midlands,All,50,2,0,50,0,3.1,77.3,96.9,96.9,85,3.5,1.2,85,2.5,1.9,79.6,92.6,95.7,60,1.7,1.7,60,6.1,5.2,73.9,86.1,88.7,40,18200,21200,24100,65,15300,23500,27400,45,12800,19300,23700,40,19700,21200,24100,65,15700,23500,27400,45,12800,19300,23700,25,8.9,30,10.2,25,0,20,250,20,220,20,220,0.5,0.7,0.6,2,2,2,46.4,36.4,37.4,36.1,23.5,27
201718,Tax year,National,K03000001,Great Britain,Female,Allied health,Higher Education Institution,The University of Portsmouth,10007155,England,South East,All,c,c,c,c,c,c,c,c,c,c,c,c,c,c,c,c,c,c,40,5.6,0,35,5.9,2.9,70.6,91.2,91.2,c,c,c,c,c,c,c,c,25,22800,27600,29900,c,c,c,c,c,c,c,c,25,24000,27900,31100,c,c,c,c,15,28.6,c,c,c,c,15,260,c,c,0.4,c,c,2,c,c,41.2,c,c,35.3
201718,Tax year,National,K03000001,Great Britain,Female,Allied health,Higher Education Institution,The University of Reading,10007802,England,South East,All,45,2.4,0,45,1.2,1.2,86.6,97.6,97.6,35,3.1,0,35,12.7,4.8,82.5,82.5,82.5,35,3.2,3.2,30,1.7,5.1,81.4,91.5,93.2,40,20400,21500,23000,25,22300,24500,25200,25,23700,28100,31800,40,20400,21500,23000,25,22300,24500,25200,25,16400,27700,31800,35,5.7,25,8,30,21.8,35,340,25,340,25,300,0.1,0.1,0.2,1,1,1,85.4,79.4,93.2,79.3,66.7,84.7
201718,Tax year,National,K03000001,Great Britain,Female,Allied health,Higher Education Institution,The University of Salford,10007156,England,North West,All,245,1.6,0,240,3.8,6.3,76.4,86.6,90,210,1,0,210,2.7,9.2,71.1,85.4,88.1,250,2.4,1.4,240,4.6,4.6,75.9,86.8,90.8,165,13900,19300,21500,140,15700,21200,24500,155,15300,23400,27400,175,13500,18600,21500,145,15300,20800,24500,170,13900,22600,27400,95,16,80,12.5,85,10.7,55,240,50,250,55,220,0.5,0.5,0.6,2,2,2,39.3,38.8,35.1,22.6,24.3,21.3
201718,Tax year,National,K03000001,Great Britain,Female,Allied health,Higher Education Institution,The University of Sheffield,10007157,England,Yorkshire and the Humber,All,170,0,0.6,165,1.2,4.8,52.1,78.8,93.9,150,0.7,0.7,145,4.2,2.1,60.4,86.1,93.8,155,0,0.7,155,3.9,3.9,61.2,85.5,92.1,85,17500,21500,23700,85,20800,24800,27700,95,21900,26300,31400,90,17500,21400,23700,85,20800,24800,27700,95,21900,26300,31400,155,9.7,140,7.4,145,8.3,145,320,130,340,135,320,0.1,0.1,0.1,1,1,1,93.3,94.4,94.7,86.7,88.9,88.8
201718,Tax year,National,K03000001,Great Britain,Female,Allied health,Higher Education Institution,The University of Southampton,10007158,England,South East,All,60,1.7,0,60,1.8,7,86,89.5,91.2,75,0,0,75,1.4,5.5,78.8,90.4,93.2,110,4.6,0,105,5.3,6.2,76.6,86.6,88.5,50,20800,21500,23400,55,17200,24500,26300,75,21200,26300,29200,50,20800,21500,23700,60,17900,24200,26600,80,20800,26000,29600,30,11.5,30,10.7,60,16.8,25,340,25,320,55,320,0.1,0.1,0.1,1,1,1,45.6,38.4,56.9,36.8,31.5,52.6
201718,Tax year,National,K03000001,Great Britain,Female,Allied health,Higher Education Institution,The University of Strathclyde,10007805,Scotland,Scotland,All,30,3.7,0,30,0,3.8,84.6,96.2,96.2,20,5.3,0,20,0,5.6,77.8,94.4,94.4,25,32,0,20,5.9,0,88.2,94.1,94.1,25,19000,21200,21500,15,22600,23000,24800,15,20800,22600,25200,25,19000,21200,21500,15,22600,23000,24800,15,20800,22600,25200,NA,0,NA,0,NA,0,NA,NA,NA,NA,NA,NA,NA,NA,NA,NA,NA,NA,0,0,0,0,0,0
201718,Tax year,National,K03000001,Great Britain,Female,Allied health,Higher Education Institution,The University of Sunderland,10007159,England,North East,All,15,0,0,15,0,23.1,76.9,76.9,76.9,30,0,0,30,0,7.7,80.8,92.3,92.3,60,4.5,0,55,7.6,6.3,78.6,84.2,86.1,c,c,c,c,20,12800,17900,21500,40,12000,15700,24100,c,c,c,c,20,10600,17900,21500,45,11000,15700,22300,0,0,0,0,5,0,0,60,0,60,5,60,1,1,1,3,3,3,0,0,0.6,0,0,0.6
201718,Tax year,National,K03000001,Great Britain,Female,Allied health,Higher Education Institution,The University of Surrey,10007160,England,South East,All,70,1.5,0,70,1.5,0,71.1,91.9,98.5,70,0,3.1,65,6.3,4.7,74.8,85.8,89,50,0,0,50,4.3,6.4,76.6,87.2,89.4,45,20800,23400,27700,50,19700,25200,31800,35,21500,26300,31400,50,20800,23000,27400,50,18100,25600,31400,35,21500,26300,31400,55,7.7,45,8.9,35,3.1,45,320,40,320,30,320,0.1,0.1,0.1,1,1,1,77,70.9,68.1,60.7,58.3,57.4
201718,Tax year,National,K03000001,Great Britain,Female,Allied health,Higher Education Institution,The University of the West of Scotland,10007800,Scotland,Scotland,All,75,0,1.4,75,2.8,1.4,27.8,62.5,95.8,35,0,0,35,3.2,6.5,74.2,83.9,90.3,15,16.7,0,c,c,c,c,c,c,20,17200,20400,23700,25,19700,22300,28100,c,c,c,c,20,17200,20400,23700,25,19700,22300,28100,c,c,c,c,NA,0,NA,0,c,c,NA,NA,NA,NA,c,c,NA,NA,c,NA,NA,c,0,0,c,0,0,c
201718,Tax year,National,K03000001,Great Britain,Female,Allied health,Higher Education Institution,The University of Warwick,10007163,England,West Midlands,All,35,0,0,35,3.2,7.4,56,76.6,89.4,45,0,0,45,10.1,7,58.2,69,83,35,4.3,0,30,12.4,2.2,62.9,82,85.4,20,17200,20800,24500,25,13500,21500,27400,20,24500,26600,37200,20,13500,20800,25600,25,12000,21500,25900,20,24500,27000,37200,20,11.2,25,9.9,20,8.6,20,340,25,340,20,340,0.1,0.1,0,1,1,1,61.5,54.8,64.9,57.3,52.5,57.1
201718,Tax year,National,K03000001,Great Britain,Female,Allied health,Higher Education Institution,The University of West London,10006566,England,London,All,c,c,c,c,c,c,c,c,c,25,4.8,19,20,18.8,0,75,81.2,81.2,45,11.6,0,40,21.1,13.2,60.5,65.8,65.8,c,c,c,c,c,c,c,c,15,15300,18200,25200,c,c,c,c,c,c,c,c,20,9800,15900,23900,c,c,0,0,5,0,c,c,0,240,5,240,c,0.5,0.5,c,2,2,c,0,2.6,c,0,2.6
201718,Tax year,National,K03000001,Great Britain,Female,Allied health,Higher Education Institution,The University of Westminster,10007165,England,London,All,75,0,4.3,70,10.4,17.8,57,60,71.9,95,1.1,1.1,95,10.9,3.3,64.5,78.7,85.8,105,5.9,4.9,95,18.8,9.9,59.1,69.1,71.3,35,13900,16800,24500,40,15000,19300,27400,40,9500,17900,26300,35,11000,16800,23400,55,10400,16300,25200,45,9800,17500,26300,25,14.3,30,23.7,30,7.7,15,240,20,230,20,240,0.5,0.7,0.5,2,2,2,31.1,32.2,28.7,22.2,19.7,22.1
201718,Tax year,National,K03000001,Great Britain,Female,Allied health,Higher Education Institution,The University of Wolverhampton,10007166,England,West Midlands,All,20,0,0,20,0,10,60,85,90,20,5.3,0,20,5.6,0,61.1,88.9,94.4,90,0,0,90,3.9,8.9,70.6,84.4,87.2,15,16700,22100,23900,15,13900,17500,21500,65,12000,16800,23400,15,16700,22100,23900,15,13900,17500,21500,65,12000,16800,23400,15,13.3,10,10,35,5.8,10,200,10,170,25,160,0.8,0.9,0.9,3,3,3,75,55.6,38.3,45,44.4,24.4
201718,Tax year,National,K03000001,Great Britain,Female,Allied health,Higher Education Institution,University Campus Suffolk,10014001,England,East of England,All,40,0,0,40,5,10,80,85,85,30,0,0,30,6.9,17.2,51.7,65.5,75.9,20,0,0,20,6.2,18.8,62.5,75,75,25,9900,15700,20400,15,7300,12800,17600,c,c,c,c,30,7800,13900,19100,15,6200,9900,17500,c,c,c,c,10,0,10,16.7,10,33.3,5,210,10,200,5,253.3333333,0.8,0.8,0.5,3,3,2,15,20.7,37.5,10,20.7,18.8
201718,Tax year,National,K03000001,Great Britain,Female,Allied health,Higher Education Institution,University College Birmingham,10000712,England,West Midlands,All,c,c,c,c,c,c,c,c,c,c,c,c,c,c,c,c,c,c,35,0,0,35,6.2,3.1,75,90.6,90.6,c,c,c,c,c,c,c,c,25,13900,18200,24500,c,c,c,c,c,c,c,c,25,15000,17700,23600,c,c,c,c,30,3.6,c,c,c,c,15,190,c,c,0.8,c,c,3,c,c,87.5,c,c,43.8
201718,Tax year,National,K03000001,Great Britain,Female,Allied health,Higher Education Institution,University College London,10007784,England,London,All,c,c,c,c,c,c,c,c,c,30,0,0,30,6.9,6.9,75.9,86.2,86.2,40,2.5,0,40,7.7,7.7,74.4,79.5,84.6,c,c,c,c,25,23700,25700,28800,30,21500,27600,29600,c,c,c,c,25,23700,25700,28800,30,22300,27400,29600,c,c,25,13.6,30,14.3,c,c,20,340,25,330,c,0.1,0.1,c,1,1,c,75.9,71.8,c,69,61.5
201718,Tax year,National,K03000001,Great Britain,Female,Allied health,Higher Education Institution,University of Abertay Dundee,10007849,Scotland,Scotland,All,c,c,c,c,c,c,c,c,c,25,0,0,25,4.5,9.1,72.7,81.8,86.4,50,14.3,0,45,4.8,2.4,81,92.9,92.9,c,c,c,c,15,16100,21900,25600,35,16800,23400,28800,c,c,c,c,20,15700,21700,25600,35,16800,23400,28800,c,c,NA,0,NA,0,c,c,NA,NA,NA,NA,c,NA,NA,c,NA,NA,c,0,0,c,0,0
201718,Tax year,National,K03000001,Great Britain,Female,Allied health,Higher Education Institution,University of Bedfordshire,10007152,England,East of England,All,120,0,0.9,120,3.4,2.6,45.7,87.9,94,85,2.4,1.2,85,9.8,4.9,68.3,82.9,85.4,95,6.5,6.5,85,19.8,4.9,61.7,71.6,75.3,25,8900,15900,20900,35,9500,16100,23700,35,9500,17500,23700,45,9700,16700,21200,55,11700,18500,23700,50,11300,18500,25900,60,10.7,45,15.9,40,7.5,40,220,35,220,35,190,0.7,0.7,0.8,2,2,3,48.3,53.7,49.4,33.6,42.7,39.5
201718,Tax year,National,K03000001,Great Britain,Female,Allied health,Higher Education Institution,University of Chester,10007848,England,North West,All,90,0,0,90,4.5,6,54.1,83.8,89.5,65,0,0,65,1.6,3.1,76.6,92.2,95.3,65,5.6,1.7,60,8.6,1.8,75.8,87.8,89.6,50,17500,20400,23500,50,18200,22600,26300,45,17900,24800,28800,50,17500,20400,23500,50,18200,22600,26300,45,17200,24800,28700,65,13.5,40,12.8,30,16.5,45,240,30,260,20,240,0.5,0.4,0.5,2,2,2,68,56.6,50.7,50.2,44.7,34
201718,Tax year,National,K03000001,Great Britain,Female,Allied health,Higher Education Institution,University of Cumbria,10007842,England,North West,All,65,0,0,65,1.6,3.2,85.7,95.2,95.2,70,0,0,70,3,0,84.4,95.6,97,65,6.6,2.5,60,0,7.2,72.1,91,92.8,55,18200,20800,21500,60,17500,23400,25900,40,16300,25000,27000,55,18200,20800,21500,60,17500,23400,25900,40,16300,25000,27000,25,4.2,35,3.1,20,20.5,15,270,25,240,15,280,0.4,0.5,0.3,2,2,2,38.1,48.1,35.1,23.8,32.6,26.1
201718,Tax year,National,K03000001,Great Britain,Female,Allied health,Higher Education Institution,University of Derby,10007851,England,East Midlands,All,90,1.1,0,90,0,10.1,77.5,85.4,89.9,95,2.2,0,95,5.5,3.3,80.2,91.2,91.2,125,4.9,0,120,5.5,6,77.4,86.4,88.5,70,16500,20800,22000,75,14200,21500,24900,90,15000,21500,26300,70,16500,20800,22000,75,14200,21500,24800,90,14500,20800,25900,60,14.3,55,17.3,55,27.5,40,220,45,240,45,220,0.7,0.5,0.6,2,2,2,62.9,57.1,46.4,43.8,46.2,34.5
201718,Tax year,National,K03000001,Great Britain,Female,Allied health,Higher Education Institution,University of Durham,10007143,England,North East,All,30,0,0,30,0,7.1,53.6,71.4,92.9,35,0,0,35,3.1,3.1,50,81.2,93.8,30,6.9,0,30,11.1,0,63,81.5,88.9,15,16400,21900,27000,20,18300,21900,25300,20,24800,26300,31400,15,16400,21900,27000,20,18300,21900,25300,20,24800,26300,31400,30,0,30,10,25,8.3,25,360,30,320,25,300,0,0.1,0.2,1,1,1,100,93.8,88.9,89.3,87.5,77.8
201718,Tax year,National,K03000001,Great Britain,Female,Allied health,Higher Education Institution,University of Gloucestershire,10007145,England,South West,All,c,c,c,c,c,c,c,c,c,c,c,c,c,c,c,c,c,c,c,c,c,c,c,c,c,c,c,c,c,c,c,c,c,c,c,c,c,c,c,c,c,c,c,c,c,c,c,c,c,c,c,c,c,c,c,c,c,c,c,c,c,c,c,c,c,c,c,c,c,c,c,c,c,c,c
201718,Tax year,National,K03000001,Great Britain,Female,Allied health,Higher Education Institution,University of Hertfordshire,10007147,England,East of England,All,115,0.9,0,110,1.8,2.7,77.2,87.2,95.4,105,1,0,105,6.9,4.9,66.2,88.2,88.2,80,2.6,0,75,1.3,4,88,94.7,94.7,85,20800,23000,25900,65,21900,26600,31000,65,19000,28100,34700,85,20800,23000,25900,70,21200,26600,31000,65,19300,28300,35100,85,15.9,75,8.3,45,11.1,75,260,65,260,40,280,0.4,0.4,0.3,2,2,2,74.9,71.1,60,68.5,63.2,53.3
201718,Tax year,National,K03000001,Great Britain,Female,Allied health,Higher Education Institution,University of Newcastle-upon-Tyne,10007799,England,North East,All,140,0,0,140,4.9,5.1,46,71.3,90,135,0,0,135,3.1,3.8,57.8,77.7,93.1,100,0,1,100,5.1,5.1,63,86.6,89.7,65,16800,20800,22600,80,19700,24800,27400,65,24100,27000,33200,65,16800,20800,22600,80,19700,24800,27400,65,24100,28100,33200,130,3.1,125,5.7,95,3.2,120,340,110,340,85,340,0.1,0.1,0,1,1,1,94.9,93.9,94.9,84.3,80.8,82.9
201718,Tax year,National,K03000001,Great Britain,Female,Allied health,Higher Education Institution,University of Northumbria at Newcastle,10001282,England,North East,All,90,0,0,90,2.3,4.7,81.4,89.5,93,90,2.2,0,90,4.5,3.4,77.3,90.9,92,80,5.1,1.3,75,5.5,5.5,72.6,87.7,89,70,19000,21200,23000,70,21500,24300,27400,50,17200,24500,28500,70,19000,21200,23000,70,21500,24500,28100,50,17200,24500,28500,45,9.5,45,2.2,35,8.8,20,300,30,300,25,300,0.2,0.2,0.2,1,1,1,48.8,51.1,46.6,20.9,34.1,28.8
201718,Tax year,National,K03000001,Great Britain,Female,Allied health,Higher Education Institution,University of Nottingham,10007154,England,East Midlands,All,95,1.1,0,95,5.3,1.6,74.3,87.7,93,125,1.6,0,125,5,2.5,67.8,85.1,92.6,105,3,2.5,95,6.3,6.8,78.4,85.8,86.8,70,16400,21200,23000,75,17500,24100,26600,65,19700,26600,31000,70,16400,21200,23000,80,17500,23700,26600,70,18600,26600,31000,50,11.8,85,8.6,45,5.7,40,320,75,300,40,320,0.1,0.2,0.1,1,1,1,49.7,66.9,46.3,42.8,62,37.9
201718,Tax year,National,K03000001,Great Britain,Female,Allied health,Higher Education Institution,University of Plymouth,10007801,England,South West,All,165,0.6,0,165,1.6,3.7,86.6,93.2,94.7,155,0.7,0.7,150,3,3.3,77.7,93,93.7,125,4.1,0.8,115,2.6,4.8,84.7,92.6,92.6,135,19000,21200,23000,110,21900,24800,29900,85,17200,23700,27400,140,18600,21200,22600,115,21500,24800,29900,95,16100,23700,27000,90,16.3,80,14.1,55,13.3,70,260,65,280,45,240,0.4,0.3,0.5,2,2,2,53.4,52,45.9,40.7,40.3,37.6
201718,Tax year,National,K03000001,Great Britain,Female,Allied health,Higher Education Institution,University of South Wales,10007793,Wales,Wales,All,50,4.1,2,50,4.3,6.5,81.5,88,89.1,65,1.6,0,60,11.7,5.8,60.8,79.2,82.5,35,5.7,2.9,35,9.4,0,87.5,87.5,90.6,20,12000,16400,25200,30,12800,17900,20100,15,6200,8900,22300,30,12400,19000,29900,35,15000,19700,24500,30,9700,16300,28700,20,12.5,35,18.5,20,5.6,NA,NA,NA,NA,NA,NA,NA,NA,NA,NA,NA,NA,43.5,54.2,56.2,0,0,0
201718,Tax year,National,K03000001,Great Britain,Female,Allied health,Higher Education Institution,University of St Mark and St John,10037449,England,South West,All,40,0,0,40,0,0,84.2,94.7,100,25,4.3,0,25,4.5,0,86.4,90.9,95.5,c,c,c,c,c,c,c,c,c,35,15300,21500,24800,20,15700,22100,25200,c,c,c,c,35,15300,21500,24800,20,15700,22100,25200,c,c,c,c,25,12,10,10,c,c,20,280,10,300,c,c,0.3,0.2,c,2,1,c,65.8,45.5,c,50,40.9,c
201718,Tax year,National,K03000001,Great Britain,Female,Allied health,Higher Education Institution,"University of the Arts, London",10007162,England,London,All,15,0,0,15,6.7,6.7,80,86.7,86.7,c,c,c,c,c,c,c,c,c,c,c,c,c,c,c,c,c,c,15,12800,16400,20800,c,c,c,c,c,c,c,c,15,11900,16400,19200,c,c,c,c,c,c,c,c,5,60,c,c,c,c,5,220,c,c,c,c,0.7,c,c,2,c,c,33.3,c,c,33.3,c,c
201718,Tax year,National,K03000001,Great Britain,Female,Allied health,Higher Education Institution,"University of the West of England, Bristol",10007164,England,South West,All,155,0.7,0,155,1.3,5.3,68.9,85.4,93.4,180,0.6,0,175,4.6,6.3,68,84.6,89.1,165,4.8,0.6,160,9,4.5,70.5,85.3,86.5,105,17200,20800,22600,110,18600,24100,26600,110,16400,24500,29900,105,17200,20800,22600,115,18600,24100,26600,110,16400,24500,29600,85,17.3,110,17.3,70,15.7,60,260,90,280,60,260,0.4,0.3,0.4,2,2,2,53.6,62.9,44.9,38.4,50.9,35.9
201718,Tax year,National,K03000001,Great Britain,Female,Allied health,Higher Education Institution,University of Wales Trinity Saint David,10007858,Wales,Wales,All,30,0,0,30,1.9,9.3,57.4,81.5,88.9,30,0,0,30,1.9,7.4,64.8,85.2,90.7,c,c,c,c,c,c,c,c,c,15,8800,15700,17500,20,12400,18200,22300,c,c,c,c,20,7300,15000,17500,20,12400,18200,22300,c,c,c,c,15,8.7,20,11.8,c,c,NA,NA,NA,NA,c,c,NA,NA,c,NA,NA,c,42.6,63,c,0,0,c
201718,Tax year,National,K03000001,Great Britain,Female,Allied health,Higher Education Institution,"University of Wales, Newport",10007853,Wales,Wales,All,c,c,c,c,c,c,c,c,c,c,c,c,c,c,c,c,c,c,20,6.5,0,15,3.4,10.3,75.9,86.2,86.2,c,c,c,c,c,c,c,c,c,c,c,c,c,c,c,c,c,c,c,c,c,c,c,c,c,c,c,c,10,25,c,c,c,c,NA,NA,c,c,NA,c,c,NA,c,c,41.4,c,c,0
201718,Tax year,National,K03000001,Great Britain,Female,Allied health,Higher Education Institution,University of Worcester,10007139,England,West Midlands,All,85,0,0,85,0,11.8,67.1,84.7,88.2,35,0,0,35,9.4,9.4,50,75,81.2,35,3.2,0,35,4.9,6.6,68.9,85.2,88.5,55,14200,20100,21200,15,18200,20100,21200,20,12000,19000,20800,60,13500,19000,20800,15,16400,19700,21200,20,12000,19000,20800,35,22.6,25,4.5,20,24.2,25,255,15,260,15,280,0.5,0.4,0.3,2,2,2,36.5,68.8,54.1,25.9,46.9,34.4
201718,Tax year,National,K03000001,Great Britain,Female,Allied health,Higher Education Institution,York St John University,10007713,England,Yorkshire and the Humber,All,120,0,0,120,0.9,2.6,88,94.9,96.6,145,1.4,0.7,140,0.7,4.3,84.1,93.5,94.9,155,5.2,0.3,145,7.6,1.4,81.9,88.9,91,105,18600,20800,22300,115,20400,23000,25600,120,21500,25200,27700,105,18600,20800,22300,115,20400,23000,25900,120,21500,25200,27700,95,10.5,90,9.1,85,7.2,80,260,70,250,70,240,0.4,0.5,0.5,2,2,2,81.2,63.8,57.6,65,50.7,45.8
201718,Tax year,National,K03000001,Great Britain,Female,"Architecture, building and planning",Alternative Provider,Architectural Association (Incorporated),10008071,England,London,All,c,c,c,c,c,c,c,c,c,c,c,c,c,c,c,c,c,c,c,c,c,c,c,c,c,c,c,c,c,c,c,c,c,c,c,c,c,c,c,c,c,c,c,c,c,c,c,c,c,c,c,c,c,c,c,c,c,c,c,c,c,c,c,c,c,c,c,c,c,c,c,c,c,c,c
201718,Tax year,National,K03000001,Great Britain,Female,"Architecture, building and planning",Alternative Provider,University College of Estate Management,10008173,England,South East,All,c,c,c,c,c,c,c,c,c,c,c,c,c,c,c,c,c,c,c,c,c,c,c,c,c,c,c,c,c,c,c,c,c,c,c,c,c,c,c,c,c,c,c,c,c,c,c,c,c,c,c,c,c,c,c,c,c,c,c,c,c,c,c,c,c,c,c,c,c,c,c,c,c,c,c
201718,Tax year,National,K03000001,Great Britain,Female,"Architecture, building and planning",Further Education College,Blackburn College,10000747,England,North West,All,c,c,c,c,c,c,c,c,c,c,c,c,c,c,c,c,c,c,c,c,c,c,c,c,c,c,c,c,c,c,c,c,c,c,c,c,c,c,c,c,c,c,c,c,c,c,c,c,c,c,c,c,c,c,c,c,c,c,c,c,c,c,c,c,c,c,c,c,c,c,c,c,c,c,c
201718,Tax year,National,K03000001,Great Britain,Female,"Architecture, building and planning",Further Education College,Guildford College of Further and Higher Education,10002815,England,South East,All,c,c,c,c,c,c,c,c,c,c,c,c,c,c,c,c,c,c,c,c,c,c,c,c,c,c,c,c,c,c,c,c,c,c,c,c,c,c,c,c,c,c,c,c,c,c,c,c,c,c,c,c,c,c,c,c,c,c,c,c,c,c,c,c,c,c,c,c,c,c,c,c,c,c,c
201718,Tax year,National,K03000001,Great Britain,Female,"Architecture, building and planning",Further Education College,Hadlow College,10002843,England,South East,All,c,c,c,c,c,c,c,c,c,c,c,c,c,c,c,c,c,c,15,8.3,8.3,c,c,c,c,c,c,c,c,c,c,c,c,c,c,c,c,c,c,c,c,c,c,c,c,c,c,c,c,c,c,c,c,c,c,c,c,c,c,c,c,c,c,c,c,c,c,c,c,c,c,c,c,c,c
201718,Tax year,National,K03000001,Great Britain,Female,"Architecture, building and planning",Further Education College,Hull College,10003200,England,Yorkshire and the Humber,All,c,c,c,c,c,c,c,c,c,c,c,c,c,c,c,c,c,c,c,c,c,c,c,c,c,c,c,c,c,c,c,c,c,c,c,c,c,c,c,c,c,c,c,c,c,c,c,c,c,c,c,c,c,c,c,c,c,c,c,c,c,c,c,c,c,c,c,c,c,c,c,c,c,c,c
201718,Tax year,National,K03000001,Great Britain,Female,"Architecture, building and planning",Further Education College,Macclesfield College,10004144,England,North West,All,c,c,c,c,c,c,c,c,c,c,c,c,c,c,c,c,c,c,c,c,c,c,c,c,c,c,c,c,c,c,c,c,c,c,c,c,c,c,c,c,c,c,c,c,c,c,c,c,c,c,c,c,c,c,c,c,c,c,c,c,c,c,c,c,c,c,c,c,c,c,c,c,c,c,c
201718,Tax year,National,K03000001,Great Britain,Female,"Architecture, building and planning",Further Education College,Moulton College,10004442,England,East Midlands,All,c,c,c,c,c,c,c,c,c,c,c,c,c,c,c,c,c,c,c,c,c,c,c,c,c,c,c,c,c,c,c,c,c,c,c,c,c,c,c,c,c,c,c,c,c,c,c,c,c,c,c,c,c,c,c,c,c,c,c,c,c,c,c,c,c,c,c,c,c,c,c,c,c,c,c
201718,Tax year,National,K03000001,Great Britain,Female,"Architecture, building and planning",Further Education College,Reaseheath College,10005404,England,North West,All,c,c,c,c,c,c,c,c,c,c,c,c,c,c,c,c,c,c,c,c,c,c,c,c,c,c,c,c,c,c,c,c,c,c,c,c,c,c,c,c,c,c,c,c,c,c,c,c,c,c,c,c,c,c,c,c,c,c,c,c,c,c,c,c,c,c,c,c,c,c,c,c,c,c,c
